STUDYID,DOMAIN,USUBJID,AESEQ,AETERM,AEDECOD,AESTDTC,AEENDTC,AESEV,AESER,AEREL,AEOUT,AEACN,VISIT,VISITNUM
SYN-2026-01,AE,SYN-2026-01-SITE-101-012,1,Back pain,,2025-12-28,,SEVERE,N,RELATED,NOT RECOVERED,,Baseline / Day 1,2
SYN-2026-01,AE,SYN-2026-01-SITE-101-012,2,Cough,,2026-01-12,2026-01-21,MILD,Y,NOT RELATED,RECOVERED,DOSE NOT CHANGED,Week 4,3
SYN-2026-01,AE,SYN-2026-01-SITE-101-012,3,Nausea,,2026-03-08,2026-03-14,MILD,N,PROBABLE,RECOVERED,,Week 12,4
SYN-2026-01,AE,SYN-2026-01-SITE-101-012,4,Arthralgia,,2026-03-09,2026-03-22,MILD,N,POSSIBLE,RECOVERED,,Week 12,4
SYN-2026-01,AE,SYN-2026-01-SITE-101-012,5,Upper respiratory tract infection,,2026-03-25,,MODERATE,N,NOT RELATED,RECOVERED,,Week 12,4
SYN-2026-01,AE,SYN-2026-01-SITE-101-014,1,Dizziness,,2025-11-15,,MILD,N,POSSIBLE,RECOVERING,,Week 4,3
SYN-2026-01,AE,SYN-2026-01-SITE-101-014,2,Vomiting,,2026-01-07,,MODERATE,N,PROBABLE,RECOVERING,,Week 12,4
SYN-2026-01,AE,SYN-2026-01-SITE-101-014,3,sore throat and runny nose,,2026-03-25,2026-04-05,MILD,N,UNLIKELY,RECOVERED,,End of study,5
SYN-2026-01,AE,SYN-2026-01-SITE-101-014,4,Insomnia,,2026-03-28,2026-04-12,MILD,N,RELATED,RECOVERED,,End of study,5
SYN-2026-01,AE,SYN-2026-01-SITE-101-014,5,Pyrexia,,2026-04-06,,MILD,N,UNLIKELY,RECOVERING,,End of study,5
SYN-2026-01,AE,SYN-2026-01-SITE-101-018,1,feeling sick to stomach,,2026-01-17,,MILD,N,PROBABLE,NOT RECOVERED,,Baseline / Day 1,2
SYN-2026-01,AE,SYN-2026-01-SITE-101-018,2,sore throat and runny nose,,2026-01-24,,MILD,N,POSSIBLE,RECOVERED,,Baseline / Day 1,2
SYN-2026-01,AE,SYN-2026-01-SITE-101-018,3,Dizziness,,2026-02-01,2026-02-02,MODERATE,N,PROBABLE,RECOVERED,,Baseline / Day 1,2
SYN-2026-01,AE,SYN-2026-01-SITE-101-018,4,Diarrhoea,,2026-02-17,,MILD,N,RELATED,RECOVERING,,Week 4,3
SYN-2026-01,AE,SYN-2026-01-SITE-101-018,5,Arthralgia,,2026-07-17,,MILD,N,RELATED,NOT RECOVERED,,End of study,5
SYN-2026-01,AE,SYN-2026-01-SITE-101-053,1,sore throat and runny nose,,2026-02-22,,MODERATE,N,NOT RELATED,NOT RECOVERED,,Baseline / Day 1,2
SYN-2026-01,AE,SYN-2026-01-SITE-101-053,2,Vomiting,,2026-03-17,2026-03-28,MILD,N,UNLIKELY,RECOVERED,,Week 4,3
SYN-2026-01,AE,SYN-2026-01-SITE-101-053,3,Fatigue,,2026-03-18,,MILD,N,POSSIBLE,UNKNOWN,,Week 4,3
SYN-2026-01,AE,SYN-2026-01-SITE-101-053,4,Rash,,2026-05-13,2026-05-27,MILD,N,POSSIBLE,RECOVERED,,Week 12,4
SYN-2026-01,AE,SYN-2026-01-SITE-101-057,1,feeling sick to stomach,,2025-10-05,,MODERATE,N,NOT RELATED,UNKNOWN,,Baseline / Day 1,2
SYN-2026-01,AE,SYN-2026-01-SITE-101-057,2,sore throat and runny nose,,2025-10-05,,MILD,Y,PROBABLE,UNKNOWN,DOSE REDUCED,Baseline / Day 1,2
SYN-2026-01,AE,SYN-2026-01-SITE-101-057,3,Cough,,2025-12-24,2025-12-25,MILD,N,RELATED,RECOVERED,,Week 12,4
SYN-2026-01,AE,SYN-2026-01-SITE-101-057,4,Upper respiratory tract infection,,2025-12-28,,MILD,Y,RELATED,RECOVERING,DOSE NOT CHANGED,Week 12,4
SYN-2026-01,AE,SYN-2026-01-SITE-101-057,5,Cough,,2026-03-10,2026-03-14,MILD,N,NOT RELATED,RECOVERED,,End of study,5
SYN-2026-01,AE,SYN-2026-01-SITE-101-058,1,Pruritus,,2026-02-26,2026-03-07,MODERATE,N,PROBABLE,RECOVERED,,Week 4,3
SYN-2026-01,AE,SYN-2026-01-SITE-101-058,2,Abdominal pain,,2026-04-19,2026-04-26,MODERATE,N,NOT RELATED,RECOVERED,,Week 12,4
SYN-2026-01,AE,SYN-2026-01-SITE-101-058,3,Nausea,,2026-05-05,,MODERATE,N,POSSIBLE,UNKNOWN,,Week 12,4
SYN-2026-01,AE,SYN-2026-01-SITE-101-058,4,not himself,,2026-05-08,,MODERATE,Y,RELATED,RECOVERING,DOSE REDUCED,Week 12,4
SYN-2026-01,AE,SYN-2026-01-SITE-101-063,1,Abdominal pain,,2026-02-19,,SEVERE,N,PROBABLE,NOT RECOVERED,,Baseline / Day 1,2
SYN-2026-01,AE,SYN-2026-01-SITE-101-063,2,head ache,,2026-03-16,,MODERATE,N,PROBABLE,NOT RECOVERED,,Week 4,3
SYN-2026-01,AE,SYN-2026-01-SITE-101-063,3,BP high,,2026-05-09,2026-05-17,MODERATE,N,POSSIBLE,RECOVERED,,Week 12,4
SYN-2026-01,AE,SYN-2026-01-SITE-101-063,4,Dizziness,,2026-07-23,,MILD,N,UNLIKELY,NOT RECOVERED,,End of study,5
SYN-2026-01,AE,SYN-2026-01-SITE-101-063,5,Vomiting,,2026-07-28,2026-08-08,MILD,N,RELATED,RECOVERED,,End of study,5
SYN-2026-01,AE,SYN-2026-01-SITE-101-078,1,head ache,,2025-10-10,2025-10-17,MILD,Y,UNLIKELY,RECOVERED,DOSE NOT CHANGED,Baseline / Day 1,2
SYN-2026-01,AE,SYN-2026-01-SITE-101-078,2,Insomnia,,2026-03-31,,MODERATE,N,UNLIKELY,RECOVERING,,End of study,5
SYN-2026-01,AE,SYN-2026-01-SITE-101-082,1,head ache,,2026-04-05,,MILD,N,UNLIKELY,NOT RECOVERED,,Week 4,3
SYN-2026-01,AE,SYN-2026-01-SITE-101-082,2,head ache,,2026-08-13,2026-08-30,MILD,N,NOT RELATED,RECOVERED,,End of study,5
SYN-2026-01,AE,SYN-2026-01-SITE-101-083,1,Headache,,2026-04-23,2026-05-14,SEVERE,N,POSSIBLE,RECOVERED,,Week 4,3
SYN-2026-01,AE,SYN-2026-01-SITE-101-083,2,not himself,,2026-05-03,2026-05-07,SEVERE,N,UNLIKELY,RECOVERED,,Week 4,3
SYN-2026-01,AE,SYN-2026-01-SITE-101-083,3,Dizziness,,2026-09-12,2026-09-13,SEVERE,N,RELATED,RECOVERED,,End of study,5
SYN-2026-01,AE,SYN-2026-01-SITE-101-083,4,Back pain,,2026-09-23,2026-10-06,MILD,N,PROBABLE,RECOVERED,,End of study,5
SYN-2026-01,AE,SYN-2026-01-SITE-101-086,1,Diarrhoea,,2025-10-27,,MILD,N,UNLIKELY,UNKNOWN,,Baseline / Day 1,2
SYN-2026-01,AE,SYN-2026-01-SITE-101-086,2,tired all the time,,2025-11-08,,MILD,Y,NOT RELATED,FATAL,DOSE NOT CHANGED,Week 4,3
SYN-2026-01,AE,SYN-2026-01-SITE-101-086,3,felt off,,2025-11-11,2025-11-27,MILD,N,NOT RELATED,RECOVERED,,Week 4,3
SYN-2026-01,AE,SYN-2026-01-SITE-101-086,4,Abdominal pain,,2025-11-12,,MODERATE,N,PROBABLE,RECOVERING,,Week 4,3
SYN-2026-01,AE,SYN-2026-01-SITE-101-086,5,felt off,,2026-01-11,2026-01-14,MILD,N,NOT RELATED,RECOVERED,,Week 12,4
SYN-2026-01,AE,SYN-2026-01-SITE-101-087,1,Pyrexia,,2025-10-28,2025-11-08,MODERATE,N,POSSIBLE,RECOVERED,,Baseline / Day 1,2
SYN-2026-01,AE,SYN-2026-01-SITE-101-087,2,Vomiting,,2025-11-05,2025-11-14,MILD,N,PROBABLE,RECOVERED,,Baseline / Day 1,2
SYN-2026-01,AE,SYN-2026-01-SITE-101-087,3,felt off,,2025-12-02,2025-12-10,MODERATE,N,POSSIBLE,RECOVERED,,Week 4,3
SYN-2026-01,AE,SYN-2026-01-SITE-101-087,4,Arthralgia,,2026-01-16,,MILD,N,POSSIBLE,UNKNOWN,,Week 12,4
SYN-2026-01,AE,SYN-2026-01-SITE-101-087,5,Cough,,2026-04-21,2026-04-24,MODERATE,N,RELATED,RECOVERED,,End of study,5
SYN-2026-01,AE,SYN-2026-01-SITE-101-095,1,Nausea,,2026-01-07,,MILD,N,RELATED,UNKNOWN,,Week 4,3
SYN-2026-01,AE,SYN-2026-01-SITE-101-095,2,Arthralgia,,2026-01-25,,MODERATE,N,UNLIKELY,NOT RECOVERED,,Baseline / Day 1,2
SYN-2026-01,AE,SYN-2026-01-SITE-101-095,3,Cough,,2026-02-20,,MODERATE,N,RELATED,UNKNOWN,,Week 4,3
SYN-2026-01,AE,SYN-2026-01-SITE-101-107,1,Cough,,2026-01-15,2026-02-01,MODERATE,N,PROBABLE,RECOVERED,,Week 4,3
SYN-2026-01,AE,SYN-2026-01-SITE-102-003,1,Fatigue,,2025-09-13,,MODERATE,N,RELATED,UNKNOWN,,Baseline / Day 1,2
SYN-2026-01,AE,SYN-2026-01-SITE-102-003,2,head ache,,2025-09-16,,MODERATE,N,UNLIKELY,NOT RECOVERED,,Baseline / Day 1,2
SYN-2026-01,AE,SYN-2026-01-SITE-102-010,1,Vomiting,,2025-11-03,2025-11-20,MILD,N,PROBABLE,RECOVERED,,Baseline / Day 1,2
SYN-2026-01,AE,SYN-2026-01-SITE-102-010,2,feeling sick to stomach,,2025-11-11,2025-11-16,MILD,N,RELATED,RECOVERED,,Baseline / Day 1,2
SYN-2026-01,AE,SYN-2026-01-SITE-102-023,1,Cough,,2026-02-18,2026-03-10,MILD,N,RELATED,RECOVERED,,Baseline / Day 1,2
SYN-2026-01,AE,SYN-2026-01-SITE-102-023,2,Dizziness,,2026-02-18,,SEVERE,N,NOT RELATED,RECOVERING,,Baseline / Day 1,2
SYN-2026-01,AE,SYN-2026-01-SITE-102-023,3,Pruritus,,2026-03-16,2026-04-06,MILD,Y,NOT RELATED,RECOVERED,DOSE NOT CHANGED,Week 4,3
SYN-2026-01,AE,SYN-2026-01-SITE-102-023,4,Fatigue,,2026-03-30,,MILD,N,POSSIBLE,UNKNOWN,,Week 4,3
SYN-2026-01,AE,SYN-2026-01-SITE-102-023,5,feeling sick to stomach,,2026-07-26,,MODERATE,N,RELATED,RECOVERING,,End of study,5
SYN-2026-01,AE,SYN-2026-01-SITE-102-023,6,Upper respiratory tract infection,,2026-07-30,,MILD,N,NOT RELATED,RECOVERING,,End of study,5
SYN-2026-01,AE,SYN-2026-01-SITE-102-024,1,Pruritus,,2025-10-13,,MILD,N,POSSIBLE,RECOVERING,,Baseline / Day 1,2
SYN-2026-01,AE,SYN-2026-01-SITE-102-024,2,Pyrexia,,2025-10-17,2025-10-27,SEVERE,N,POSSIBLE,RECOVERED,,Baseline / Day 1,2
SYN-2026-01,AE,SYN-2026-01-SITE-102-024,3,Cough,,2025-11-08,,MILD,N,PROBABLE,UNKNOWN,,Week 4,3
SYN-2026-01,AE,SYN-2026-01-SITE-102-024,4,Arthralgia,,2026-01-18,,MILD,Y,POSSIBLE,RECOVERING,,Week 12,4
SYN-2026-01,AE,SYN-2026-01-SITE-102-024,5,Upper respiratory tract infection,,2026-04-05,2026-04-22,SEVERE,Y,UNLIKELY,RECOVERED,DOSE NOT CHANGED,End of study,5
SYN-2026-01,AE,SYN-2026-01-SITE-102-025,1,Arthralgia,,2025-11-20,2025-11-25,SEVERE,N,RELATED,RECOVERED,,Baseline / Day 1,2
SYN-2026-01,AE,SYN-2026-01-SITE-102-025,2,Vomiting,,2025-12-08,2025-12-21,MILD,N,RELATED,RECOVERED,,Week 4,3
SYN-2026-01,AE,SYN-2026-01-SITE-102-025,3,Insomnia,,2025-12-21,,SEVERE,N,UNLIKELY,NOT RECOVERED,,Week 4,3
SYN-2026-01,AE,SYN-2026-01-SITE-102-025,4,Arthralgia,,2025-12-24,2026-01-14,MODERATE,N,RELATED,RECOVERED,,Week 4,3
SYN-2026-01,AE,SYN-2026-01-SITE-102-025,5,Back pain,,2026-02-04,2026-02-11,MILD,N,RELATED,RECOVERED,,Week 12,4
SYN-2026-01,AE,SYN-2026-01-SITE-102-025,6,Dizziness,,2026-02-12,2026-02-18,MILD,N,RELATED,RECOVERED,,Week 12,4
SYN-2026-01,AE,SYN-2026-01-SITE-102-025,7,head ache,,2026-05-07,2026-05-15,MODERATE,N,RELATED,RECOVERED,,End of study,5
SYN-2026-01,AE,SYN-2026-01-SITE-102-025,8,Cough,,2026-05-16,2026-05-22,MILD,N,NOT RELATED,RECOVERED,,End of study,5
SYN-2026-01,AE,SYN-2026-01-SITE-102-026,1,head ache,,2025-10-03,2025-10-13,MODERATE,N,UNLIKELY,RECOVERED,,Baseline / Day 1,2
SYN-2026-01,AE,SYN-2026-01-SITE-102-026,2,tired all the time,,2025-10-12,,MODERATE,N,NOT RELATED,NOT RECOVERED,,Baseline / Day 1,2
SYN-2026-01,AE,SYN-2026-01-SITE-102-026,3,Vomiting,,2025-11-04,2025-11-21,MODERATE,N,UNLIKELY,RECOVERED,,Week 4,3
SYN-2026-01,AE,SYN-2026-01-SITE-102-026,4,Headache,,2025-11-06,,MILD,N,UNLIKELY,NOT RECOVERED,,Week 4,3
SYN-2026-01,AE,SYN-2026-01-SITE-102-026,5,Nausea,,2025-12-23,2025-12-26,MILD,N,RELATED,RECOVERED,,Week 12,4
SYN-2026-01,AE,SYN-2026-01-SITE-102-026,6,Fatigue,,2026-03-15,2026-03-29,MODERATE,N,RELATED,RECOVERED,,End of study,5
SYN-2026-01,AE,SYN-2026-01-SITE-102-026,7,Pruritus,,2026-03-25,2026-03-30,MODERATE,N,UNLIKELY,RECOVERED,,End of study,5
SYN-2026-01,AE,SYN-2026-01-SITE-102-027,1,Back pain,,2025-11-11,2025-11-25,MODERATE,N,PROBABLE,RECOVERED,,Baseline / Day 1,2
SYN-2026-01,AE,SYN-2026-01-SITE-102-028,1,Upper respiratory tract infection,,2026-05-30,2026-06-13,MODERATE,N,RELATED,RECOVERED,,Week 12,4
SYN-2026-01,AE,SYN-2026-01-SITE-102-028,2,head ache,,2026-07-31,2026-08-18,MILD,N,UNLIKELY,RECOVERED,,End of study,5
SYN-2026-01,AE,SYN-2026-01-SITE-102-028,3,felt off,,2026-08-12,2026-08-21,MILD,N,NOT RELATED,RECOVERED,,End of study,5
SYN-2026-01,AE,SYN-2026-01-SITE-102-055,1,Abdominal pain,,2026-05-03,2026-05-23,MODERATE,Y,RELATED,RECOVERED,DOSE REDUCED,Week 12,4
SYN-2026-01,AE,SYN-2026-01-SITE-102-055,2,Pruritus,,2026-06-28,,MILD,N,RELATED,RECOVERING,,End of study,5
SYN-2026-01,AE,SYN-2026-01-SITE-102-061,1,Upper respiratory tract infection,,2025-11-03,,MODERATE,N,UNLIKELY,RECOVERING,,Baseline / Day 1,2
SYN-2026-01,AE,SYN-2026-01-SITE-102-061,2,BP high,,2025-11-14,,MILD,N,RELATED,UNKNOWN,,Baseline / Day 1,2
SYN-2026-01,AE,SYN-2026-01-SITE-102-061,3,Cough,,2025-12-04,2025-12-16,MILD,N,RELATED,RECOVERED,,Week 4,3
SYN-2026-01,AE,SYN-2026-01-SITE-102-061,4,Vomiting,,2025-12-05,2025-12-26,SEVERE,N,RELATED,RECOVERED,,Week 4,3
SYN-2026-01,AE,SYN-2026-01-SITE-102-061,5,Pruritus,,2026-01-25,,MILD,N,RELATED,RECOVERING,,Week 12,4
SYN-2026-01,AE,SYN-2026-01-SITE-102-064,1,Pyrexia,,2025-11-14,2025-11-27,MILD,N,NOT RELATED,RECOVERED,,Week 4,3
SYN-2026-01,AE,SYN-2026-01-SITE-102-064,2,Pruritus,,2025-11-19,,MODERATE,N,UNLIKELY,NOT RECOVERED,,Week 4,3
SYN-2026-01,AE,SYN-2026-01-SITE-102-070,1,Arthralgia,,2026-01-31,2026-02-12,MODERATE,N,POSSIBLE,RECOVERED,,Baseline / Day 1,2
SYN-2026-01,AE,SYN-2026-01-SITE-102-070,2,Pyrexia,,2026-02-15,2026-02-27,MODERATE,N,UNLIKELY,RECOVERED,,Baseline / Day 1,2
SYN-2026-01,AE,SYN-2026-01-SITE-102-070,3,Diarrhoea,,2026-02-17,,MILD,N,PROBABLE,NOT RECOVERED,,Baseline / Day 1,2
SYN-2026-01,AE,SYN-2026-01-SITE-102-070,4,felt off,,2026-03-08,2026-03-23,MODERATE,N,PROBABLE,RECOVERED,,Week 4,3
SYN-2026-01,AE,SYN-2026-01-SITE-102-070,5,feeling sick to stomach,,2026-04-27,,MODERATE,N,UNLIKELY,RECOVERED,,Week 12,4
SYN-2026-01,AE,SYN-2026-01-SITE-102-070,6,Vomiting,,2026-07-17,,MILD,N,NOT RELATED,RECOVERING,,End of study,5
SYN-2026-01,AE,SYN-2026-01-SITE-102-070,7,Cough,,2026-07-28,2026-08-01,MODERATE,N,NOT RELATED,RECOVERED,,End of study,5
SYN-2026-01,AE,SYN-2026-01-SITE-102-070,8,Nausea,,2026-07-31,2026-08-04,MILD,N,PROBABLE,RECOVERED,,End of study,5
SYN-2026-01,AE,SYN-2026-01-SITE-102-088,1,tired all the time,,2025-09-07,,MILD,N,PROBABLE,NOT RECOVERED,,Baseline / Day 1,2
SYN-2026-01,AE,SYN-2026-01-SITE-102-088,2,feeling sick to stomach,,2025-10-08,2025-10-26,MODERATE,N,POSSIBLE,RECOVERED,,Week 4,3
SYN-2026-01,AE,SYN-2026-01-SITE-102-088,3,BP high,,2025-11-18,,MODERATE,N,POSSIBLE,RECOVERING,,Week 12,4
SYN-2026-01,AE,SYN-2026-01-SITE-102-088,4,Pyrexia,,2025-11-24,2025-12-07,MILD,N,NOT RELATED,RECOVERED,,Week 12,4
SYN-2026-01,AE,SYN-2026-01-SITE-102-088,5,sore throat and runny nose,,2026-02-23,,MODERATE,N,UNLIKELY,NOT RECOVERED,,End of study,5
SYN-2026-01,AE,SYN-2026-01-SITE-102-096,1,Dizziness,,2026-02-20,,MODERATE,Y,NOT RELATED,FATAL,DOSE REDUCED,Baseline / Day 1,2
SYN-2026-01,AE,SYN-2026-01-SITE-102-096,2,Abdominal pain,,2026-03-22,2026-04-11,MILD,N,RELATED,RECOVERED,,Week 4,3
SYN-2026-01,AE,SYN-2026-01-SITE-102-096,3,sore throat and runny nose,,2026-03-23,2026-04-02,SEVERE,N,RELATED,RECOVERED,,Week 4,3
SYN-2026-01,AE,SYN-2026-01-SITE-102-096,4,Insomnia,,2026-05-20,2026-05-30,MODERATE,N,UNLIKELY,RECOVERED,,Week 12,4
SYN-2026-01,AE,SYN-2026-01-SITE-102-096,5,Headache,,2026-07-26,,MODERATE,N,NOT RELATED,RECOVERING,,End of study,5
SYN-2026-01,AE,SYN-2026-01-SITE-102-097,1,Back pain,,2026-03-28,2026-04-02,SEVERE,N,PROBABLE,RECOVERED,,Baseline / Day 1,2
SYN-2026-01,AE,SYN-2026-01-SITE-102-097,2,sore throat and runny nose,,2026-04-04,2026-04-17,MODERATE,N,POSSIBLE,RECOVERED,,Baseline / Day 1,2
SYN-2026-01,AE,SYN-2026-01-SITE-102-103,1,sore throat and runny nose,,2026-07-03,2026-07-09,MODERATE,Y,NOT RELATED,RECOVERED,DOSE NOT CHANGED,End of study,5
SYN-2026-01,AE,SYN-2026-01-SITE-102-105,1,Abdominal pain,,2026-03-17,2026-03-21,MILD,N,NOT RELATED,RECOVERED,,Week 4,3
SYN-2026-01,AE,SYN-2026-01-SITE-102-105,2,Dizziness,,2026-03-17,2026-03-18,SEVERE,N,POSSIBLE,RECOVERED,,Week 4,3
SYN-2026-01,AE,SYN-2026-01-SITE-102-105,3,tired all the time,,2026-04-04,2026-04-15,MODERATE,N,RELATED,RECOVERED,,Week 4,3
SYN-2026-01,AE,SYN-2026-01-SITE-102-106,1,BP high,,2026-02-27,,MILD,Y,UNLIKELY,RECOVERING,DOSE NOT CHANGED,Week 4,3
SYN-2026-01,AE,SYN-2026-01-SITE-102-108,1,Dizziness,,2026-03-12,2026-03-14,MILD,Y,RELATED,RECOVERED,DOSE REDUCED,Baseline / Day 1,2
SYN-2026-01,AE,SYN-2026-01-SITE-102-108,2,Headache,,2026-03-14,,MILD,N,RELATED,UNKNOWN,,Baseline / Day 1,2
SYN-2026-01,AE,SYN-2026-01-SITE-102-113,1,Arthralgia,,2026-05-22,2026-05-30,MILD,N,UNLIKELY,RECOVERED,,Week 12,4
SYN-2026-01,AE,SYN-2026-01-SITE-102-113,2,Pruritus,,2026-06-05,2026-06-14,MILD,N,NOT RELATED,RECOVERED,,Week 12,4
SYN-2026-01,AE,SYN-2026-01-SITE-102-113,3,Fatigue,,2026-08-16,2026-08-19,MILD,N,UNLIKELY,RECOVERED,,End of study,5
SYN-2026-01,AE,SYN-2026-01-SITE-102-113,4,felt off,,2026-08-20,,MODERATE,N,RELATED,NOT RECOVERED,,End of study,5
SYN-2026-01,AE,SYN-2026-01-SITE-102-114,1,Dizziness,,2025-12-29,2026-01-11,MODERATE,N,NOT RELATED,RECOVERED,,Baseline / Day 1,2
SYN-2026-01,AE,SYN-2026-01-SITE-102-114,2,Headache,,2026-01-20,,MILD,N,PROBABLE,RECOVERING,,Week 4,3
SYN-2026-01,AE,SYN-2026-01-SITE-102-114,3,tired all the time,,2026-01-30,2026-02-12,MILD,N,UNLIKELY,RECOVERED,,Week 4,3
SYN-2026-01,AE,SYN-2026-01-SITE-102-114,4,Arthralgia,,2026-02-05,,MILD,N,PROBABLE,UNKNOWN,,Week 4,3
SYN-2026-01,AE,SYN-2026-01-SITE-102-114,5,Upper respiratory tract infection,,2026-03-19,2026-03-22,MILD,N,POSSIBLE,RECOVERED,,Week 12,4
SYN-2026-01,AE,SYN-2026-01-SITE-102-114,6,Insomnia,,2026-06-21,,MILD,N,NOT RELATED,RECOVERING,,End of study,5
SYN-2026-01,AE,SYN-2026-01-SITE-102-119,1,Arthralgia,,2026-03-20,2026-04-07,MILD,N,RELATED,RECOVERED,,Baseline / Day 1,2
SYN-2026-01,AE,SYN-2026-01-SITE-102-119,2,sore throat and runny nose,,2026-03-29,2026-04-05,MODERATE,N,PROBABLE,RECOVERED,,Baseline / Day 1,2
SYN-2026-01,AE,SYN-2026-01-SITE-102-119,3,Rash,,2026-04-09,2026-04-30,MILD,N,PROBABLE,RECOVERED,,Week 4,3
SYN-2026-01,AE,SYN-2026-01-SITE-102-119,4,not himself,,2026-06-05,2026-06-19,MODERATE,N,UNLIKELY,RECOVERED,,Week 12,4
SYN-2026-01,AE,SYN-2026-01-SITE-103-002,1,Arthralgia,,2026-04-29,2026-05-01,MODERATE,N,RELATED,RECOVERED,,Week 12,4
SYN-2026-01,AE,SYN-2026-01-SITE-103-005,1,Upper respiratory tract infection,,2026-03-03,2026-03-18,MODERATE,N,POSSIBLE,RECOVERED,,Baseline / Day 1,2
SYN-2026-01,AE,SYN-2026-01-SITE-103-005,2,Pyrexia,,2026-03-05,,MODERATE,N,PROBABLE,RECOVERING,,Baseline / Day 1,2
SYN-2026-01,AE,SYN-2026-01-SITE-103-006,1,head ache,,2026-03-17,2026-03-21,SEVERE,N,UNLIKELY,RECOVERED,,Week 4,3
SYN-2026-01,AE,SYN-2026-01-SITE-103-006,2,Dizziness,,2026-07-19,2026-07-26,MODERATE,N,POSSIBLE,RECOVERED,,End of study,5
SYN-2026-01,AE,SYN-2026-01-SITE-103-009,1,Nausea,,2025-10-31,2025-11-01,MILD,N,PROBABLE,RECOVERED,,Week 4,3
SYN-2026-01,AE,SYN-2026-01-SITE-103-009,2,Pruritus,,2025-10-31,,MODERATE,N,POSSIBLE,RECOVERING,,Week 4,3
SYN-2026-01,AE,SYN-2026-01-SITE-103-009,3,felt off,,2026-03-24,2026-04-04,MODERATE,N,PROBABLE,RECOVERED,,End of study,5
SYN-2026-01,AE,SYN-2026-01-SITE-103-009,4,felt off,,2026-03-29,,MILD,N,NOT RELATED,NOT RECOVERED,,End of study,5
SYN-2026-01,AE,SYN-2026-01-SITE-103-040,1,Vomiting,,2025-09-21,,MILD,N,PROBABLE,NOT RECOVERED,,Baseline / Day 1,2
SYN-2026-01,AE,SYN-2026-01-SITE-103-040,2,Rash,,2025-10-02,,MILD,N,NOT RELATED,UNKNOWN,,Baseline / Day 1,2
SYN-2026-01,AE,SYN-2026-01-SITE-103-040,3,not himself,,2025-10-22,2025-11-02,MODERATE,N,UNLIKELY,RECOVERED,,Week 4,3
SYN-2026-01,AE,SYN-2026-01-SITE-103-043,1,Headache,,2025-12-29,2026-01-13,SEVERE,N,RELATED,RECOVERED,,Week 12,4
SYN-2026-01,AE,SYN-2026-01-SITE-103-067,1,head ache,,2026-01-12,,MODERATE,N,UNLIKELY,NOT RECOVERED,,Baseline / Day 1,2
SYN-2026-01,AE,SYN-2026-01-SITE-103-067,2,Insomnia,,2026-01-15,,MILD,N,POSSIBLE,UNKNOWN,,Baseline / Day 1,2
SYN-2026-01,AE,SYN-2026-01-SITE-103-067,3,Abdominal pain,,2026-01-28,,SEVERE,N,POSSIBLE,RECOVERED,,Week 4,3
SYN-2026-01,AE,SYN-2026-01-SITE-103-067,4,Nausea,,2026-01-31,2026-02-14,MILD,N,RELATED,RECOVERED,,Week 4,3
SYN-2026-01,AE,SYN-2026-01-SITE-103-067,5,felt off,,2026-02-09,2026-02-14,MODERATE,N,PROBABLE,RECOVERED,,Week 4,3
SYN-2026-01,AE,SYN-2026-01-SITE-103-067,6,sore throat and runny nose,,2026-04-15,,SEVERE,N,RELATED,NOT RECOVERED,,Week 12,4
SYN-2026-01,AE,SYN-2026-01-SITE-103-067,7,Nausea,,2026-07-03,,MILD,N,UNLIKELY,UNKNOWN,,End of study,5
SYN-2026-01,AE,SYN-2026-01-SITE-103-084,1,Dizziness,,2025-11-26,2025-12-04,MILD,N,NOT RELATED,RECOVERED,,Baseline / Day 1,2
SYN-2026-01,AE,SYN-2026-01-SITE-103-085,1,Dizziness,,2026-04-03,,MILD,Y,NOT RELATED,NOT RECOVERED,,Week 4,3
SYN-2026-01,AE,SYN-2026-01-SITE-103-085,2,Pyrexia,,2026-04-08,,MODERATE,N,RELATED,UNKNOWN,,Week 4,3
SYN-2026-01,AE,SYN-2026-01-SITE-103-085,3,Vomiting,,2026-05-25,,MILD,N,PROBABLE,NOT RECOVERED,,Week 12,4
SYN-2026-01,AE,SYN-2026-01-SITE-103-085,4,Abdominal pain,,2026-06-06,,MODERATE,N,UNLIKELY,RECOVERED,,Week 12,4
SYN-2026-01,AE,SYN-2026-01-SITE-103-093,1,Dizziness,,2026-02-18,,MILD,N,NOT RELATED,UNKNOWN,,Baseline / Day 1,2
SYN-2026-01,AE,SYN-2026-01-SITE-103-093,2,tired all the time,,2026-02-27,,SEVERE,N,POSSIBLE,UNKNOWN,,Baseline / Day 1,2
SYN-2026-01,AE,SYN-2026-01-SITE-103-093,3,Pyrexia,,2026-05-22,2026-06-10,MILD,N,RELATED,RECOVERED,,Week 12,4
SYN-2026-01,AE,SYN-2026-01-SITE-103-099,1,Diarrhoea,,2025-10-09,2025-10-16,MILD,N,NOT RELATED,RECOVERED,,Baseline / Day 1,2
SYN-2026-01,AE,SYN-2026-01-SITE-103-099,2,tired all the time,,2025-10-09,,MILD,N,POSSIBLE,RECOVERING,,Baseline / Day 1,2
SYN-2026-01,AE,SYN-2026-01-SITE-103-099,3,not himself,,2025-10-18,,MODERATE,N,NOT RELATED,UNKNOWN,,Baseline / Day 1,2
SYN-2026-01,AE,SYN-2026-01-SITE-103-099,4,Arthralgia,,2026-04-02,,MODERATE,N,POSSIBLE,NOT RECOVERED,,End of study,5
SYN-2026-01,AE,SYN-2026-01-SITE-103-100,1,tired all the time,,2026-06-16,,MILD,N,UNLIKELY,NOT RECOVERED,,End of study,5
SYN-2026-01,AE,SYN-2026-01-SITE-103-120,1,Insomnia,,2026-01-05,2026-01-16,MODERATE,N,RELATED,RECOVERED,,Baseline / Day 1,2
SYN-2026-01,AE,SYN-2026-01-SITE-103-120,2,Nausea,,2026-01-20,,MILD,N,POSSIBLE,NOT RECOVERED,,Week 4,3
SYN-2026-01,AE,SYN-2026-01-SITE-103-120,3,Cough,,2026-01-29,2026-02-14,MILD,N,NOT RELATED,RECOVERED,,Week 4,3
SYN-2026-01,AE,SYN-2026-01-SITE-103-120,4,Arthralgia,,2026-03-13,2026-04-03,MILD,N,NOT RELATED,RECOVERED,,Week 12,4
SYN-2026-01,AE,SYN-2026-01-SITE-103-120,5,Pruritus,,2026-03-25,2026-04-13,MODERATE,Y,NOT RELATED,RECOVERED,DRUG WITHDRAWN,Week 12,4
SYN-2026-01,AE,SYN-2026-01-SITE-103-120,6,Insomnia,,2026-06-09,2026-06-05,MILD,Y,UNLIKELY,RECOVERED,DOSE REDUCED,End of study,5
SYN-2026-01,AE,SYN-2026-01-SITE-104-007,1,Cough,,2025-11-26,,MILD,N,RELATED,RECOVERING,,Baseline / Day 1,2
SYN-2026-01,AE,SYN-2026-01-SITE-104-008,1,Upper respiratory tract infection,,2026-03-09,,MODERATE,N,POSSIBLE,NOT RECOVERED,,Baseline / Day 1,2
SYN-2026-01,AE,SYN-2026-01-SITE-104-008,2,felt off,,2026-03-12,,SEVERE,N,NOT RELATED,RECOVERING,,Baseline / Day 1,2
SYN-2026-01,AE,SYN-2026-01-SITE-104-008,3,Arthralgia,,2026-06-06,2026-06-21,MILD,N,NOT RELATED,RECOVERED,,Week 12,4
SYN-2026-01,AE,SYN-2026-01-SITE-104-008,4,Diarrhoea,,2026-06-11,2026-06-27,MILD,N,POSSIBLE,RECOVERED,,Week 12,4
SYN-2026-01,AE,SYN-2026-01-SITE-104-013,1,feeling sick to stomach,,2026-03-12,,MILD,N,POSSIBLE,NOT RECOVERED,,Baseline / Day 1,2
SYN-2026-01,AE,SYN-2026-01-SITE-104-013,2,Fatigue,,2026-03-23,2026-03-30,MILD,N,UNLIKELY,RECOVERED,,Baseline / Day 1,2
SYN-2026-01,AE,SYN-2026-01-SITE-104-013,3,Headache,,2026-03-25,2026-04-12,MILD,N,NOT RELATED,RECOVERED,,Baseline / Day 1,2
SYN-2026-01,AE,SYN-2026-01-SITE-104-015,1,Insomnia,,2026-02-19,,MILD,N,UNLIKELY,NOT RECOVERED,,End of study,5
SYN-2026-01,AE,SYN-2026-01-SITE-104-015,2,Diarrhoea,,2026-02-26,2026-03-12,MODERATE,N,POSSIBLE,RECOVERED,,End of study,5
SYN-2026-01,AE,SYN-2026-01-SITE-104-015,3,Pyrexia,,2026-03-05,2026-03-18,MODERATE,N,NOT RELATED,RECOVERED,,End of study,5
SYN-2026-01,AE,SYN-2026-01-SITE-104-016,1,sore throat and runny nose,,2026-04-22,2026-05-13,MODERATE,N,UNLIKELY,RECOVERED,,Week 4,3
SYN-2026-01,AE,SYN-2026-01-SITE-104-019,1,head ache,,2025-11-24,,MILD,N,RELATED,RECOVERING,,Week 4,3
SYN-2026-01,AE,SYN-2026-01-SITE-104-019,2,tired all the time,,2026-03-11,,MODERATE,N,RELATED,NOT RECOVERED,,Week 12,4
SYN-2026-01,AE,SYN-2026-01-SITE-104-020,1,Upper respiratory tract infection,,2025-11-02,2025-11-10,MILD,N,POSSIBLE,RECOVERED,,Week 4,3
SYN-2026-01,AE,SYN-2026-01-SITE-104-020,2,sore throat and runny nose,,2026-01-04,2026-01-07,MILD,N,UNLIKELY,RECOVERED,,Week 12,4
SYN-2026-01,AE,SYN-2026-01-SITE-104-020,3,BP high,,2026-03-31,2026-04-02,MILD,N,UNLIKELY,RECOVERED,,End of study,5
SYN-2026-01,AE,SYN-2026-01-SITE-104-029,1,Rash,,2026-03-29,,MODERATE,N,UNLIKELY,NOT RECOVERED,,Baseline / Day 1,2
SYN-2026-01,AE,SYN-2026-01-SITE-104-029,2,felt off,,2026-04-18,2026-04-19,MODERATE,N,NOT RELATED,RECOVERED,,Week 4,3
SYN-2026-01,AE,SYN-2026-01-SITE-104-029,3,Dizziness,,2026-04-21,2026-05-11,MODERATE,N,UNLIKELY,RECOVERED,,Week 4,3
SYN-2026-01,AE,SYN-2026-01-SITE-104-029,4,BP high,,2026-08-28,2026-09-12,MILD,N,UNLIKELY,RECOVERED,,End of study,5
SYN-2026-01,AE,SYN-2026-01-SITE-104-029,5,Pruritus,,2026-09-04,,MODERATE,N,PROBABLE,RECOVERING,,End of study,5
SYN-2026-01,AE,SYN-2026-01-SITE-104-029,6,Upper respiratory tract infection,,2026-09-11,2026-09-27,MILD,Y,POSSIBLE,RECOVERED,DOSE NOT CHANGED,End of study,5
SYN-2026-01,AE,SYN-2026-01-SITE-104-032,1,Nausea,,2026-01-08,,MODERATE,N,NOT RELATED,RECOVERING,,Baseline / Day 1,2
SYN-2026-01,AE,SYN-2026-01-SITE-104-032,2,Vomiting,,2026-01-09,,MILD,N,UNLIKELY,RECOVERED,,Baseline / Day 1,2
SYN-2026-01,AE,SYN-2026-01-SITE-104-032,3,Vomiting,,2026-01-11,2026-01-13,MODERATE,N,POSSIBLE,RECOVERED,,Baseline / Day 1,2
SYN-2026-01,AE,SYN-2026-01-SITE-104-032,4,Insomnia,,2026-04-11,,MILD,N,PROBABLE,RECOVERED,,Week 12,4
SYN-2026-01,AE,SYN-2026-01-SITE-104-032,5,Dizziness,,2026-06-19,2026-06-30,MODERATE,N,POSSIBLE,RECOVERED,,End of study,5
SYN-2026-01,AE,SYN-2026-01-SITE-104-032,6,Rash,,2026-06-22,2026-07-11,MILD,N,POSSIBLE,RECOVERED,,End of study,5
SYN-2026-01,AE,SYN-2026-01-SITE-104-032,7,Arthralgia,,2026-06-24,2026-07-12,MILD,N,UNLIKELY,RECOVERED,,End of study,5
SYN-2026-01,AE,SYN-2026-01-SITE-104-035,1,Abdominal pain,,2025-09-07,2025-09-28,MILD,N,RELATED,RECOVERED,,Baseline / Day 1,2
SYN-2026-01,AE,SYN-2026-01-SITE-104-035,2,Vomiting,,2025-09-14,2025-09-17,MILD,N,RELATED,RECOVERED,,Baseline / Day 1,2
SYN-2026-01,AE,SYN-2026-01-SITE-104-035,3,Rash,,2025-10-16,2025-10-27,SEVERE,N,RELATED,RECOVERED,,Week 4,3
SYN-2026-01,AE,SYN-2026-01-SITE-104-035,4,Cough,,2025-10-26,2025-10-23,MODERATE,N,NOT RELATED,RECOVERED,,Week 4,3
SYN-2026-01,AE,SYN-2026-01-SITE-104-035,5,Back pain,,2025-11-30,2025-11-27,MILD,N,POSSIBLE,RECOVERED,,Week 12,4
SYN-2026-01,AE,SYN-2026-01-SITE-104-038,1,Dizziness,,2026-02-12,2026-02-24,MODERATE,N,PROBABLE,RECOVERED,,Baseline / Day 1,2
SYN-2026-01,AE,SYN-2026-01-SITE-104-039,1,BP high,,2025-10-01,,MILD,N,UNLIKELY,RECOVERING,,Week 4,3
SYN-2026-01,AE,SYN-2026-01-SITE-104-039,2,Arthralgia,,2025-12-10,,SEVERE,N,PROBABLE,NOT RECOVERED,,Week 12,4
SYN-2026-01,AE,SYN-2026-01-SITE-104-039,3,head ache,,2025-12-12,,MILD,N,RELATED,RECOVERING,,Week 12,4
SYN-2026-01,AE,SYN-2026-01-SITE-104-045,1,Abdominal pain,,2025-10-22,2025-10-24,MILD,N,UNLIKELY,RECOVERED,,Baseline / Day 1,2
SYN-2026-01,AE,SYN-2026-01-SITE-104-045,2,head ache,,2025-11-19,,MILD,Y,UNLIKELY,RECOVERING,DOSE REDUCED,Baseline / Day 1,2
SYN-2026-01,AE,SYN-2026-01-SITE-104-045,3,Pruritus,,2026-02-14,2026-03-02,MILD,N,UNLIKELY,RECOVERED,,Week 12,4
SYN-2026-01,AE,SYN-2026-01-SITE-104-045,4,felt off,,2026-05-03,2026-05-12,MODERATE,N,NOT RELATED,RECOVERED,,End of study,5
SYN-2026-01,AE,SYN-2026-01-SITE-104-047,1,sore throat and runny nose,,2025-10-13,2025-10-24,MILD,N,RELATED,RECOVERED,,Baseline / Day 1,2
SYN-2026-01,AE,SYN-2026-01-SITE-104-047,2,not himself,,2026-04-05,,MILD,N,NOT RELATED,RECOVERED,,End of study,5
SYN-2026-01,AE,SYN-2026-01-SITE-104-047,3,Arthralgia,,2026-04-06,2026-04-13,MODERATE,Y,RELATED,RECOVERED,DOSE NOT CHANGED,End of study,5
SYN-2026-01,AE,SYN-2026-01-SITE-104-051,1,Abdominal pain,,2026-01-04,,MILD,N,UNLIKELY,RECOVERING,,Week 4,3
SYN-2026-01,AE,SYN-2026-01-SITE-104-051,2,Cough,,2026-02-23,2026-03-02,MILD,N,PROBABLE,RECOVERED,,Week 12,4
SYN-2026-01,AE,SYN-2026-01-SITE-104-051,3,not himself,,2026-05-30,2026-06-07,MILD,N,PROBABLE,RECOVERED,,End of study,5
SYN-2026-01,AE,SYN-2026-01-SITE-104-051,4,Cough,,2026-05-31,,MILD,N,UNLIKELY,RECOVERING,,End of study,5
SYN-2026-01,AE,SYN-2026-01-SITE-104-056,1,Headache,,2025-12-04,,SEVERE,N,RELATED,NOT RECOVERED,,Week 4,3
SYN-2026-01,AE,SYN-2026-01-SITE-104-060,1,Cough,,2025-11-10,,MILD,N,PROBABLE,NOT RECOVERED,,Week 4,3
SYN-2026-01,AE,SYN-2026-01-SITE-104-060,2,tired all the time,,2026-01-11,2026-01-23,MODERATE,N,PROBABLE,RECOVERED,,Week 12,4
SYN-2026-01,AE,SYN-2026-01-SITE-104-066,1,head ache,,2025-11-28,2025-11-29,MODERATE,N,RELATED,RECOVERED,,Baseline / Day 1,2
SYN-2026-01,AE,SYN-2026-01-SITE-104-068,1,Back pain,,2025-12-26,,SEVERE,Y,RELATED,NOT RECOVERED,DRUG WITHDRAWN,Baseline / Day 1,2
SYN-2026-01,AE,SYN-2026-01-SITE-104-068,2,Insomnia,,2025-12-29,,MILD,N,POSSIBLE,NOT RECOVERED,,Baseline / Day 1,2
SYN-2026-01,AE,SYN-2026-01-SITE-104-068,3,Insomnia,,2025-12-31,,MILD,N,NOT RELATED,RECOVERING,,Baseline / Day 1,2
SYN-2026-01,AE,SYN-2026-01-SITE-104-068,4,Vomiting,,2026-03-09,2026-03-11,MILD,Y,NOT RELATED,RECOVERED,DOSE REDUCED,Week 12,4
SYN-2026-01,AE,SYN-2026-01-SITE-104-068,5,head ache,,2026-06-01,2026-06-07,MILD,Y,RELATED,RECOVERED,DOSE REDUCED,End of study,5
SYN-2026-01,AE,SYN-2026-01-SITE-104-073,1,Nausea,,2025-12-14,2025-12-25,MODERATE,N,UNLIKELY,RECOVERED,,Week 4,3
SYN-2026-01,AE,SYN-2026-01-SITE-104-073,2,Fatigue,,2025-12-15,,MILD,N,RELATED,NOT RECOVERED,,Week 4,3
SYN-2026-01,AE,SYN-2026-01-SITE-104-073,3,Diarrhoea,,2025-12-27,2026-01-04,MILD,N,POSSIBLE,RECOVERED,,Week 4,3
SYN-2026-01,AE,SYN-2026-01-SITE-104-073,4,Arthralgia,,2026-02-16,,MILD,N,PROBABLE,UNKNOWN,,Week 12,4
SYN-2026-01,AE,SYN-2026-01-SITE-104-073,5,Insomnia,,2026-02-25,2026-03-01,MILD,N,RELATED,RECOVERED,,Week 12,4
SYN-2026-01,AE,SYN-2026-01-SITE-104-074,1,feeling sick to stomach,,2025-10-19,,MILD,N,POSSIBLE,RECOVERED,,Week 4,3
SYN-2026-01,AE,SYN-2026-01-SITE-104-074,2,Fatigue,,2025-10-26,2025-10-21,MODERATE,N,NOT RELATED,RECOVERED,,Week 4,3
SYN-2026-01,AE,SYN-2026-01-SITE-104-074,3,BP high,,2025-12-16,2025-12-18,SEVERE,N,UNLIKELY,RECOVERED,,Week 12,4
SYN-2026-01,AE,SYN-2026-01-SITE-104-074,4,Nausea,,2026-02-26,2026-03-19,MODERATE,N,PROBABLE,RECOVERED,,End of study,5
SYN-2026-01,AE,SYN-2026-01-SITE-104-076,1,Pruritus,,2026-03-23,,MILD,Y,NOT RELATED,NOT RECOVERED,DOSE REDUCED,Baseline / Day 1,2
SYN-2026-01,AE,SYN-2026-01-SITE-104-079,1,Diarrhoea,,2025-09-28,2025-09-30,MODERATE,N,NOT RELATED,RECOVERED,,Week 4,3
SYN-2026-01,AE,SYN-2026-01-SITE-104-079,2,Rash,,2025-10-05,,MILD,N,PROBABLE,UNKNOWN,,Week 4,3
SYN-2026-01,AE,SYN-2026-01-SITE-104-079,3,Fatigue,,2025-10-10,,SEVERE,N,POSSIBLE,NOT RECOVERED,,Week 4,3
SYN-2026-01,AE,SYN-2026-01-SITE-104-079,4,Fatigue,,2026-02-18,,MODERATE,N,POSSIBLE,NOT RECOVERED,,End of study,5
SYN-2026-01,AE,SYN-2026-01-SITE-104-079,5,BP high,,2026-02-22,2026-03-06,MODERATE,N,PROBABLE,RECOVERED,,End of study,5
SYN-2026-01,AE,SYN-2026-01-SITE-104-079,6,Back pain,,2026-03-03,2026-03-13,MODERATE,N,POSSIBLE,RECOVERED,,End of study,5
SYN-2026-01,AE,SYN-2026-01-SITE-104-090,1,Arthralgia,,2026-02-22,2026-03-09,MILD,N,POSSIBLE,RECOVERED,,Week 4,3
SYN-2026-01,AE,SYN-2026-01-SITE-104-090,2,not himself,,2026-02-26,,MILD,N,PROBABLE,NOT RECOVERED,,Week 4,3
SYN-2026-01,AE,SYN-2026-01-SITE-104-090,3,not himself,,2026-02-28,2026-03-17,MILD,N,NOT RELATED,RECOVERED,,Week 4,3
SYN-2026-01,AE,SYN-2026-01-SITE-104-091,1,Diarrhoea,,2025-10-27,2025-11-13,MILD,N,PROBABLE,RECOVERED,,Baseline / Day 1,2
SYN-2026-01,AE,SYN-2026-01-SITE-104-091,2,not himself,,2025-11-25,,MILD,Y,RELATED,NOT RECOVERED,DRUG WITHDRAWN,Baseline / Day 1,2
SYN-2026-01,AE,SYN-2026-01-SITE-104-091,3,Cough,,2025-11-28,2025-11-29,MODERATE,N,NOT RELATED,RECOVERED,,Baseline / Day 1,2
SYN-2026-01,AE,SYN-2026-01-SITE-104-091,4,not himself,,2025-12-18,,MILD,N,RELATED,RECOVERED,,Week 4,3
SYN-2026-01,AE,SYN-2026-01-SITE-104-091,5,Pyrexia,,2026-04-29,2026-05-07,MODERATE,N,PROBABLE,RECOVERED,,End of study,5
SYN-2026-01,AE,SYN-2026-01-SITE-104-091,6,not himself,,2026-05-02,2026-05-04,MILD,N,UNLIKELY,RECOVERED,,End of study,5
SYN-2026-01,AE,SYN-2026-01-SITE-104-092,1,Back pain,,2026-04-12,,SEVERE,N,RELATED,RECOVERING,,Week 12,4
SYN-2026-01,AE,SYN-2026-01-SITE-104-092,2,Cough,,2026-04-23,,MILD,N,NOT RELATED,NOT RECOVERED,,Week 12,4
SYN-2026-01,AE,SYN-2026-01-SITE-104-092,3,Rash,,2026-07-10,,MILD,N,POSSIBLE,UNKNOWN,,End of study,5
SYN-2026-01,AE,SYN-2026-01-SITE-104-101,1,Fatigue,,2026-02-10,,MODERATE,N,RELATED,NOT RECOVERED,,Week 4,3
SYN-2026-01,AE,SYN-2026-01-SITE-104-110,1,Abdominal pain,,2025-10-09,2025-10-21,MILD,N,POSSIBLE,RECOVERED,,Baseline / Day 1,2
SYN-2026-01,AE,SYN-2026-01-SITE-104-110,2,Pyrexia,,2025-10-25,2025-10-31,SEVERE,N,RELATED,RECOVERED,,Baseline / Day 1,2
SYN-2026-01,AE,SYN-2026-01-SITE-104-110,3,Vomiting,,2025-12-29,,MILD,N,UNLIKELY,NOT RECOVERED,,Week 12,4
SYN-2026-01,AE,SYN-2026-01-SITE-104-110,4,Pyrexia,,2025-12-30,2026-01-04,MILD,N,NOT RELATED,RECOVERED,,Week 12,4
SYN-2026-01,AE,SYN-2026-01-SITE-104-110,5,Upper respiratory tract infection,,2026-01-15,,MODERATE,Y,NOT RELATED,RECOVERING,DOSE REDUCED,Week 12,4
SYN-2026-01,AE,SYN-2026-01-SITE-104-112,1,Nausea,,2025-12-03,,SEVERE,N,POSSIBLE,RECOVERING,,Baseline / Day 1,2
SYN-2026-01,AE,SYN-2026-01-SITE-104-112,2,Vomiting,,2026-02-07,2026-02-25,MODERATE,N,PROBABLE,RECOVERED,,Week 12,4
SYN-2026-01,AE,SYN-2026-01-SITE-104-112,3,Upper respiratory tract infection,,2026-02-09,,MILD,N,RELATED,NOT RECOVERED,,Week 12,4
SYN-2026-01,AE,SYN-2026-01-SITE-104-112,4,Back pain,,2026-02-23,2026-02-24,MILD,N,PROBABLE,RECOVERED,,Week 12,4
SYN-2026-01,AE,SYN-2026-01-SITE-104-112,5,Arthralgia,,2026-05-10,2026-05-22,MILD,N,RELATED,RECOVERED,,End of study,5
SYN-2026-01,AE,SYN-2026-01-SITE-104-112,6,tired all the time,,2026-05-16,,MODERATE,N,PROBABLE,UNKNOWN,,End of study,5
SYN-2026-01,AE,SYN-2026-01-SITE-104-112,7,Insomnia,,2026-05-23,,MODERATE,N,POSSIBLE,NOT RECOVERED,,End of study,5
SYN-2026-01,AE,SYN-2026-01-SITE-104-117,1,Back pain,,2025-12-05,,MILD,N,NOT RELATED,NOT RECOVERED,,Baseline / Day 1,2
SYN-2026-01,AE,SYN-2026-01-SITE-104-117,2,tired all the time,,2026-02-19,,SEVERE,N,PROBABLE,NOT RECOVERED,,Week 12,4
SYN-2026-01,AE,SYN-2026-01-SITE-104-117,3,Diarrhoea,,2026-05-17,,SEVERE,N,UNLIKELY,NOT RECOVERED,,End of study,5
SYN-2026-01,AE,SYN-2026-01-SITE-104-117,4,Pruritus,,2026-05-25,2026-06-03,MODERATE,N,UNLIKELY,RECOVERED,,End of study,5
SYN-2026-01,AE,SYN-2026-01-SITE-104-117,5,Rash,,2026-06-03,2026-06-20,SEVERE,N,POSSIBLE,RECOVERED,,End of study,5
SYN-2026-01,AE,SYN-2026-01-SITE-104-118,1,Insomnia,,2026-01-02,,MODERATE,N,NOT RELATED,UNKNOWN,,Baseline / Day 1,2
SYN-2026-01,AE,SYN-2026-01-SITE-104-118,2,head ache,,2026-01-03,2026-01-04,MILD,N,PROBABLE,RECOVERED,,Baseline / Day 1,2
SYN-2026-01,AE,SYN-2026-01-SITE-104-118,3,Diarrhoea,,2026-01-14,,MODERATE,N,PROBABLE,NOT RECOVERED,,Week 4,3
SYN-2026-01,AE,SYN-2026-01-SITE-105-001,1,sore throat and runny nose,,2026-06-26,,MODERATE,N,PROBABLE,UNKNOWN,,Week 12,4
SYN-2026-01,AE,SYN-2026-01-SITE-105-001,2,Nausea,,2026-09-10,,MODERATE,N,POSSIBLE,UNKNOWN,,End of study,5
SYN-2026-01,AE,SYN-2026-01-SITE-105-001,3,Fatigue,,2026-09-16,2026-09-26,MODERATE,N,NOT RELATED,RECOVERED,,End of study,5
SYN-2026-01,AE,SYN-2026-01-SITE-105-001,4,not himself,,2026-09-23,2026-10-07,MODERATE,N,NOT RELATED,RECOVERED,,End of study,5
SYN-2026-01,AE,SYN-2026-01-SITE-105-011,1,Diarrhoea,,2026-03-20,,MODERATE,N,UNLIKELY,NOT RECOVERED,,Baseline / Day 1,2
SYN-2026-01,AE,SYN-2026-01-SITE-105-011,2,Upper respiratory tract infection,,2026-09-03,2026-09-06,SEVERE,N,NOT RELATED,RECOVERED,,End of study,5
SYN-2026-01,AE,SYN-2026-01-SITE-105-011,3,Back pain,,2026-09-05,2026-09-12,MILD,N,PROBABLE,RECOVERED,,End of study,5
SYN-2026-01,AE,SYN-2026-01-SITE-105-011,4,Abdominal pain,,2026-09-15,,MILD,N,POSSIBLE,UNKNOWN,,End of study,5
SYN-2026-01,AE,SYN-2026-01-SITE-105-017,1,Rash,,2026-04-19,,MODERATE,N,RELATED,RECOVERING,,Week 4,3
SYN-2026-01,AE,SYN-2026-01-SITE-105-017,2,Cough,,2026-08-31,2026-09-01,MILD,N,UNLIKELY,RECOVERED,,End of study,5
SYN-2026-01,AE,SYN-2026-01-SITE-105-017,3,Diarrhoea,,2026-08-31,,MILD,N,UNLIKELY,NOT RECOVERED,,End of study,5
SYN-2026-01,AE,SYN-2026-01-SITE-105-017,4,Nausea,,2026-09-02,,MILD,N,UNLIKELY,RECOVERING,,End of study,5
SYN-2026-01,AE,SYN-2026-01-SITE-105-030,1,Upper respiratory tract infection,,2026-06-07,2026-06-27,SEVERE,N,PROBABLE,RECOVERED,,Week 12,4
SYN-2026-01,AE,SYN-2026-01-SITE-105-030,2,felt off,,2026-06-15,,MILD,N,PROBABLE,RECOVERING,,Week 12,4
SYN-2026-01,AE,SYN-2026-01-SITE-105-030,3,feeling sick to stomach,,2026-09-08,2026-09-17,MODERATE,N,UNLIKELY,RECOVERED,,End of study,5
SYN-2026-01,AE,SYN-2026-01-SITE-105-031,1,Fatigue,,2026-03-31,2026-04-02,MODERATE,N,NOT RELATED,RECOVERED,,Week 4,3
SYN-2026-01,AE,SYN-2026-01-SITE-105-034,1,sore throat and runny nose,,2026-03-16,,SEVERE,N,PROBABLE,NOT RECOVERED,,Week 12,4
SYN-2026-01,AE,SYN-2026-01-SITE-105-034,2,Nausea,,2026-03-18,2026-03-20,MILD,N,NOT RELATED,RECOVERED,,Week 12,4
SYN-2026-01,AE,SYN-2026-01-SITE-105-036,1,Cough,,2025-12-08,,MILD,N,RELATED,RECOVERING,,End of study,5
SYN-2026-01,AE,SYN-2026-01-SITE-105-036,2,feeling sick to stomach,,2025-12-20,,MODERATE,N,NOT RELATED,UNKNOWN,,Baseline / Day 1,2
SYN-2026-01,AE,SYN-2026-01-SITE-105-036,3,felt off,,2025-12-20,,MODERATE,Y,PROBABLE,NOT RECOVERED,,Baseline / Day 1,2
SYN-2026-01,AE,SYN-2026-01-SITE-105-036,4,tired all the time,,2025-12-20,2026-01-04,MODERATE,N,UNLIKELY,RECOVERED,,Baseline / Day 1,2
SYN-2026-01,AE,SYN-2026-01-SITE-105-036,5,tired all the time,,2026-01-05,2026-01-09,MILD,N,PROBABLE,RECOVERED,,Week 4,3
SYN-2026-01,AE,SYN-2026-01-SITE-105-036,6,feeling sick to stomach,,2026-01-20,,MODERATE,N,POSSIBLE,NOT RECOVERED,,Week 4,3
SYN-2026-01,AE,SYN-2026-01-SITE-105-036,7,Headache,,2026-01-25,2026-01-26,MILD,N,NOT RELATED,RECOVERED,,Week 4,3
SYN-2026-01,AE,SYN-2026-01-SITE-105-036,8,Pruritus,,2026-03-15,,MILD,N,PROBABLE,NOT RECOVERED,,Week 12,4
SYN-2026-01,AE,SYN-2026-01-SITE-105-036,9,Vomiting,,2026-03-23,,MODERATE,N,POSSIBLE,NOT RECOVERED,,Week 12,4
SYN-2026-01,AE,SYN-2026-01-SITE-105-036,10,Diarrhoea,,2026-05-25,2026-06-02,MODERATE,N,RELATED,RECOVERED,,End of study,5
SYN-2026-01,AE,SYN-2026-01-SITE-105-037,1,Insomnia,,2026-04-13,2026-04-21,MILD,N,PROBABLE,RECOVERED,,Week 4,3
SYN-2026-01,AE,SYN-2026-01-SITE-105-037,2,Dizziness,,2026-04-23,2026-05-03,SEVERE,N,PROBABLE,RECOVERED,,Week 4,3
SYN-2026-01,AE,SYN-2026-01-SITE-105-037,3,Pruritus,,2026-06-20,,MILD,N,PROBABLE,NOT RECOVERED,,Week 12,4
SYN-2026-01,AE,SYN-2026-01-SITE-105-037,4,Upper respiratory tract infection,,2026-06-20,2026-06-25,MODERATE,N,POSSIBLE,RECOVERED,,Week 12,4
SYN-2026-01,AE,SYN-2026-01-SITE-105-041,1,Fatigue,,2025-11-24,2025-12-04,MILD,N,NOT RELATED,RECOVERED,,Baseline / Day 1,2
SYN-2026-01,AE,SYN-2026-01-SITE-105-041,2,Dizziness,,2025-12-17,2026-01-04,MILD,N,UNLIKELY,RECOVERED,,Week 4,3
SYN-2026-01,AE,SYN-2026-01-SITE-105-041,3,Fatigue,,2026-02-19,2026-03-08,MODERATE,N,RELATED,RECOVERED,,Week 12,4
SYN-2026-01,AE,SYN-2026-01-SITE-105-041,4,Insomnia,,2026-02-21,,MODERATE,N,UNLIKELY,RECOVERING,,Week 12,4
SYN-2026-01,AE,SYN-2026-01-SITE-105-041,5,BP high,,2026-02-25,,MODERATE,N,NOT RELATED,RECOVERING,,Week 12,4
SYN-2026-01,AE,SYN-2026-01-SITE-105-042,1,BP high,,2025-12-27,,MODERATE,N,POSSIBLE,NOT RECOVERED,,Week 12,4
SYN-2026-01,AE,SYN-2026-01-SITE-105-042,2,Upper respiratory tract infection,,2025-12-30,,MILD,N,UNLIKELY,NOT RECOVERED,,Week 12,4
SYN-2026-01,AE,SYN-2026-01-SITE-105-042,3,feeling sick to stomach,,2026-01-02,2026-01-21,MILD,Y,POSSIBLE,RECOVERED,DOSE REDUCED,Week 12,4
SYN-2026-01,AE,SYN-2026-01-SITE-105-042,4,not himself,,2026-03-25,2026-04-10,MILD,N,RELATED,RECOVERED,,End of study,5
SYN-2026-01,AE,SYN-2026-01-SITE-105-044,1,Cough,,2026-03-01,2026-03-15,MODERATE,N,NOT RELATED,RECOVERED,,Baseline / Day 1,2
SYN-2026-01,AE,SYN-2026-01-SITE-105-044,2,Arthralgia,,2026-05-21,,MODERATE,N,PROBABLE,RECOVERING,,Week 12,4
SYN-2026-01,AE,SYN-2026-01-SITE-105-044,3,head ache,,2026-05-23,2026-05-28,MODERATE,N,POSSIBLE,RECOVERED,,Week 12,4
SYN-2026-01,AE,SYN-2026-01-SITE-105-044,4,feeling sick to stomach,,2026-05-24,,MODERATE,N,PROBABLE,RECOVERING,,Week 12,4
SYN-2026-01,AE,SYN-2026-01-SITE-105-044,5,Rash,,2026-08-07,2026-08-27,MILD,N,PROBABLE,RECOVERED,,End of study,5
SYN-2026-01,AE,SYN-2026-01-SITE-105-044,6,sore throat and runny nose,,2026-08-11,2026-08-20,MODERATE,N,UNLIKELY,RECOVERED,,End of study,5
SYN-2026-01,AE,SYN-2026-01-SITE-105-048,1,Vomiting,,2026-02-04,,MILD,N,PROBABLE,NOT RECOVERED,,Baseline / Day 1,2
SYN-2026-01,AE,SYN-2026-01-SITE-105-049,1,feeling sick to stomach,,2025-10-10,,SEVERE,N,NOT RELATED,RECOVERING,,Week 4,3
SYN-2026-01,AE,SYN-2026-01-SITE-105-059,1,Arthralgia,,2025-12-01,,MILD,N,POSSIBLE,RECOVERING,,Baseline / Day 1,2
SYN-2026-01,AE,SYN-2026-01-SITE-105-059,2,BP high,,2025-12-31,2026-01-05,MILD,N,PROBABLE,RECOVERED,,Week 4,3
SYN-2026-01,AE,SYN-2026-01-SITE-105-059,3,Cough,,2025-12-31,2026-01-03,MILD,Y,POSSIBLE,RECOVERED,DOSE NOT CHANGED,Week 4,3
SYN-2026-01,AE,SYN-2026-01-SITE-105-062,1,Vomiting,,2025-11-25,2025-12-14,MILD,N,RELATED,RECOVERED,,Week 4,3
SYN-2026-01,AE,SYN-2026-01-SITE-105-062,2,sore throat and runny nose,,2025-12-02,2025-12-05,MILD,N,UNLIKELY,RECOVERED,,Week 4,3
SYN-2026-01,AE,SYN-2026-01-SITE-105-062,3,head ache,,2025-12-05,2025-12-24,SEVERE,N,RELATED,RECOVERED,,Week 4,3
SYN-2026-01,AE,SYN-2026-01-SITE-105-062,4,felt off,,2026-04-08,,MODERATE,Y,POSSIBLE,UNKNOWN,DOSE REDUCED,End of study,5
SYN-2026-01,AE,SYN-2026-01-SITE-105-069,1,Diarrhoea,,2025-11-13,2025-11-27,MILD,N,UNLIKELY,RECOVERED,,Baseline / Day 1,2
SYN-2026-01,AE,SYN-2026-01-SITE-105-069,2,Nausea,,2025-11-13,,MILD,N,POSSIBLE,NOT RECOVERED,,Baseline / Day 1,2
SYN-2026-01,AE,SYN-2026-01-SITE-105-069,3,Upper respiratory tract infection,,2025-11-13,2025-11-17,MILD,N,POSSIBLE,RECOVERED,,Baseline / Day 1,2
SYN-2026-01,AE,SYN-2026-01-SITE-105-069,4,Headache,,2025-12-18,,MODERATE,N,UNLIKELY,NOT RECOVERED,,Week 4,3
SYN-2026-01,AE,SYN-2026-01-SITE-105-071,1,felt off,,2026-02-06,2026-02-22,MODERATE,N,RELATED,RECOVERED,,Week 12,4
SYN-2026-01,AE,SYN-2026-01-SITE-105-072,1,Insomnia,,2025-12-17,2025-12-27,MODERATE,N,PROBABLE,RECOVERED,,Baseline / Day 1,2
SYN-2026-01,AE,SYN-2026-01-SITE-105-072,2,Abdominal pain,,2026-02-28,2026-03-14,MODERATE,N,PROBABLE,RECOVERED,,Week 12,4
SYN-2026-01,AE,SYN-2026-01-SITE-105-072,3,head ache,,2026-03-04,2026-03-20,MODERATE,N,PROBABLE,RECOVERED,,Week 12,4
SYN-2026-01,AE,SYN-2026-01-SITE-105-072,4,Headache,,2026-03-11,,MILD,N,UNLIKELY,NOT RECOVERED,,Week 12,4
SYN-2026-01,AE,SYN-2026-01-SITE-105-072,5,not himself,,2026-05-31,2026-06-12,MILD,N,NOT RELATED,RECOVERED,,End of study,5
SYN-2026-01,AE,SYN-2026-01-SITE-105-080,1,Pyrexia,,2026-05-22,2026-05-31,SEVERE,N,RELATED,RECOVERED,,Week 12,4
SYN-2026-01,AE,SYN-2026-01-SITE-105-080,2,Insomnia,,2026-05-31,2026-06-08,MODERATE,N,RELATED,RECOVERED,,Week 12,4
SYN-2026-01,AE,SYN-2026-01-SITE-105-080,3,Rash,,2026-08-24,2026-09-02,MILD,N,POSSIBLE,RECOVERED,,End of study,5
SYN-2026-01,AE,SYN-2026-01-SITE-105-081,1,Pyrexia,,2025-12-07,,MILD,N,PROBABLE,RECOVERING,,Baseline / Day 1,2
SYN-2026-01,AE,SYN-2026-01-SITE-105-081,2,sore throat and runny nose,,2025-12-31,,MODERATE,N,PROBABLE,RECOVERED,,Week 4,3
SYN-2026-01,AE,SYN-2026-01-SITE-105-081,3,Arthralgia,,2026-06-10,2026-06-20,MILD,N,PROBABLE,RECOVERED,,End of study,5
SYN-2026-01,AE,SYN-2026-01-SITE-105-089,1,Insomnia,,2026-03-17,,MILD,N,UNLIKELY,RECOVERED,,Baseline / Day 1,2
SYN-2026-01,AE,SYN-2026-01-SITE-105-089,2,Arthralgia,,2026-06-11,,MODERATE,N,PROBABLE,NOT RECOVERED,,Week 12,4
SYN-2026-01,AE,SYN-2026-01-SITE-105-089,3,feeling sick to stomach,,2026-06-16,2026-06-19,MODERATE,N,NOT RELATED,RECOVERED,,Week 12,4
SYN-2026-01,AE,SYN-2026-01-SITE-105-094,1,Cough,,2026-07-30,2026-08-02,SEVERE,N,RELATED,RECOVERED,,End of study,5
SYN-2026-01,AE,SYN-2026-01-SITE-105-098,1,Back pain,,2025-09-30,2025-10-04,MILD,N,UNLIKELY,RECOVERED,,Baseline / Day 1,2
SYN-2026-01,AE,SYN-2026-01-SITE-105-098,2,Nausea,,2025-10-01,,MILD,N,PROBABLE,RECOVERING,,Baseline / Day 1,2
SYN-2026-01,AE,SYN-2026-01-SITE-105-098,3,head ache,,2025-12-23,2026-01-13,MODERATE,N,POSSIBLE,RECOVERED,,Week 12,4
SYN-2026-01,AE,SYN-2026-01-SITE-105-109,1,Back pain,,2026-02-11,2026-02-17,SEVERE,N,NOT RELATED,RECOVERED,,Baseline / Day 1,2
SYN-2026-01,AE,SYN-2026-01-SITE-105-109,2,Upper respiratory tract infection,,2026-02-15,2026-03-06,MODERATE,N,UNLIKELY,RECOVERED,,Baseline / Day 1,2
SYN-2026-01,AE,SYN-2026-01-SITE-105-109,3,Headache,,2026-02-22,,MILD,N,POSSIBLE,UNKNOWN,,Baseline / Day 1,2
SYN-2026-01,AE,SYN-2026-01-SITE-105-109,4,Back pain,,2026-03-23,,MILD,N,POSSIBLE,RECOVERED,,Week 4,3
SYN-2026-01,AE,SYN-2026-01-SITE-105-109,5,Fatigue,,2026-05-24,2026-06-03,MILD,N,NOT RELATED,RECOVERED,,Week 12,4
SYN-2026-01,AE,SYN-2026-01-SITE-105-111,1,Nausea,,2026-05-23,2026-06-06,MILD,N,NOT RELATED,RECOVERED,,Week 12,4
SYN-2026-01,AE,SYN-2026-01-SITE-105-111,2,sore throat and runny nose,,2026-05-25,,MODERATE,N,RELATED,NOT RECOVERED,,Week 12,4
