STUDYID,DOMAIN,USUBJID,SUBJID,SITEID,BRTHDTC,AGE,AGEU,SEX,ARMCD,ARM,RFICDTC,COUNTRY
SYN-2026-01,DM,SYN-2026-01-SITE-101-012,SITE-101-012,SITE-101,1961-01-05,64,YEARS,M,B,Placebo,2025-12-20,CAN
SYN-2026-01,DM,SYN-2026-01-SITE-101-014,SITE-101-014,SITE-101,2001-10-22,23,YEARS,M,B,Placebo,2025-10-16,CAN
SYN-2026-01,DM,SYN-2026-01-SITE-101-018,SITE-101-018,SITE-101,1980-01-29,45,YEARS,F,A,Investigational product,2026-01-17,CAN
SYN-2026-01,DM,SYN-2026-01-SITE-101-053,SITE-101-053,SITE-101,1951-03-01,74,YEARS,F,B,Placebo,2026-02-10,CAN
SYN-2026-01,DM,SYN-2026-01-SITE-101-057,SITE-101-057,SITE-101,1985-10-15,39,YEARS,M,B,Placebo,2025-10-05,CAN
SYN-2026-01,DM,SYN-2026-01-SITE-101-058,SITE-101-058,SITE-101,1965-02-15,60,YEARS,F,A,Investigational product,2026-01-31,CAN
SYN-2026-01,DM,SYN-2026-01-SITE-101-063,SITE-101-063,SITE-101,1997-02-26,28,YEARS,F,A,Investigational product,2026-02-19,CAN
SYN-2026-01,DM,SYN-2026-01-SITE-101-075,SITE-101-075,SITE-101,1967-10-22,57,YEARS,F,A,Investigational product,2025-10-07,CAN
SYN-2026-01,DM,SYN-2026-01-SITE-101-078,SITE-101-078,SITE-101,1951-10-29,73,YEARS,M,A,Investigational product,2025-10-10,CAN
SYN-2026-01,DM,SYN-2026-01-SITE-101-082,SITE-101-082,SITE-101,1996-03-11,29,YEARS,M,A,Investigational product,2026-03-04,CAN
SYN-2026-01,DM,SYN-2026-01-SITE-101-083,SITE-101-083,SITE-101,1957-04-10,68,YEARS,M,B,Placebo,2026-03-24,CAN
SYN-2026-01,DM,SYN-2026-01-SITE-101-086,SITE-101-086,SITE-101,1957-11-02,67,YEARS,F,B,Placebo,2025-10-16,CAN
SYN-2026-01,DM,SYN-2026-01-SITE-101-087,SITE-101-087,SITE-101,1996-11-04,28,YEARS,M,A,Investigational product,2025-10-28,CAN
SYN-2026-01,DM,SYN-2026-01-SITE-101-095,SITE-101-095,SITE-101,1995-02-02,30,YEARS,M,A,Investigational product,2026-01-25,CAN
SYN-2026-01,DM,SYN-2026-01-SITE-101-107,SITE-101-107,SITE-101,1974-12-31,50,YEARS,F,A,Investigational product,2025-12-18,CAN
SYN-2026-01,DM,SYN-2026-01-SITE-102-003,SITE-102-003,SITE-102,2007-09-18,17,YEARS,M,A,Investigational product,2025-09-13,CAN
SYN-2026-01,DM,SYN-2026-01-SITE-102-010,SITE-102-010,SITE-102,1975-11-08,49,YEARS,F,A,Investigational product,2025-10-26,CAN
SYN-2026-01,DM,SYN-2026-01-SITE-102-023,SITE-102-023,SITE-102,1998-02-25,27,YEARS,F,A,Investigational product,2026-02-18,CAN
SYN-2026-01,DM,SYN-2026-01-SITE-102-024,SITE-102-024,SITE-102,1997-10-13,27,YEARS,M,B,Placebo,2025-10-06,CAN
SYN-2026-01,DM,SYN-2026-01-SITE-102-025,SITE-102-025,SITE-102,1967-11-28,57,YEARS,M,A,Investigational product,2025-11-13,CAN
SYN-2026-01,DM,SYN-2026-01-SITE-102-026,SITE-102-026,SITE-102,1971-10-17,53,YEARS,M,A,Investigational product,2025-10-03,CAN
SYN-2026-01,DM,SYN-2026-01-SITE-102-027,SITE-102-027,SITE-102,1991-11-18,33,YEARS,F,B,Placebo,2025-11-09,CAN
SYN-2026-01,DM,SYN-2026-01-SITE-102-028,SITE-102-028,SITE-102,1962-03-15,63,YEARS,F,B,Placebo,2026-02-27,CAN
SYN-2026-01,DM,SYN-2026-01-SITE-102-033,SITE-102-033,SITE-102,1994-01-10,31,YEARS,M,A,Investigational product,2026-01-02,CAN
SYN-2026-01,DM,SYN-2026-01-SITE-102-046,SITE-102-046,SITE-102,1984-12-21,40,YEARS,M,A,Investigational product,2025-12-11,CAN
SYN-2026-01,DM,SYN-2026-01-SITE-102-055,SITE-102-055,SITE-102,1965-01-27,60,YEARS,M,B,Placebo,2026-01-12,CAN
SYN-2026-01,DM,SYN-2026-01-SITE-102-061,SITE-102-061,SITE-102,1954-11-21,70,YEARS,M,A,Investigational product,2025-11-03,CAN
SYN-2026-01,DM,SYN-2026-01-SITE-102-064,SITE-102-064,SITE-102,1972-10-31,52,YEARS,M,B,Placebo,2025-10-18,CAN
SYN-2026-01,DM,SYN-2026-01-SITE-102-065,SITE-102-065,SITE-102,1957-10-08,67,YEARS,M,A,Investigational product,2025-09-21,CAN
SYN-2026-01,DM,SYN-2026-01-SITE-102-070,SITE-102-070,SITE-102,1982-02-11,43,YEARS,M,A,Investigational product,2026-01-31,CAN
SYN-2026-01,DM,SYN-2026-01-SITE-102-088,SITE-102-088,SITE-102,1964-09-19,60,YEARS,M,B,Placebo,2025-09-04,CAN
SYN-2026-01,DM,SYN-2026-01-SITE-102-096,SITE-102-096,SITE-102,2003-02-20,22,YEARS,M,B,Placebo,2026-02-14,CAN
SYN-2026-01,DM,SYN-2026-01-SITE-102-097,SITE-102-097,SITE-102,1993-04-05,32,YEARS,F,A,Investigational product,2026-03-28,CAN
SYN-2026-01,DM,SYN-2026-01-SITE-102-103,SITE-102-103,SITE-102,2007-01-25,18,YEARS,F,A,Investigational product,2026-01-20,CAN
SYN-2026-01,DM,SYN-2026-01-SITE-102-104,SITE-102-104,SITE-102,1960-11-26,64,YEARS,F,A,Investigational product,2025-11-10,CAN
SYN-2026-01,DM,SYN-2026-01-SITE-102-105,SITE-102-105,SITE-102,2000-02-29,25,YEARS,F,B,Placebo,2026-02-22,CAN
SYN-2026-01,DM,SYN-2026-01-SITE-102-106,SITE-102-106,SITE-102,1977-02-09,48,YEARS,F,A,Investigational product,2026-01-28,CAN
SYN-2026-01,DM,SYN-2026-01-SITE-102-108,SITE-102-108,SITE-102,1980-03-21,45,YEARS,M,A,Investigational product,2026-03-10,CAN
SYN-2026-01,DM,SYN-2026-01-SITE-102-113,SITE-102-113,SITE-102,1997-03-11,28,YEARS,M,B,Placebo,2026-03-04,CAN
SYN-2026-01,DM,SYN-2026-01-SITE-102-114,SITE-102-114,SITE-102,1965-01-13,60,YEARS,F,B,Placebo,2025-12-29,CAN
SYN-2026-01,DM,SYN-2026-01-SITE-102-116,SITE-102-116,SITE-102,1980-10-23,44,YEARS,M,B,Placebo,2025-10-12,CAN
SYN-2026-01,DM,SYN-2026-01-SITE-102-119,SITE-102-119,SITE-102,1995-03-23,30,YEARS,F,B,Placebo,2026-03-15,CAN
SYN-2026-01,DM,SYN-2026-01-SITE-103-002,SITE-103-002,SITE-103,1957-02-05,68,YEARS,F,B,Placebo,2026-01-19,CAN
SYN-2026-01,DM,SYN-2026-01-SITE-103-005,SITE-103-005,SITE-103,1998-03-09,27,YEARS,M,B,Placebo,2026-03-02,CAN
SYN-2026-01,DM,SYN-2026-01-SITE-103-006,SITE-103-006,SITE-103,1980-02-19,45,YEARS,F,B,Placebo,2026-02-07,CAN
SYN-2026-01,DM,SYN-2026-01-SITE-103-009,SITE-103-009,SITE-103,1954-10-10,70,YEARS,F,A,Investigational product,2025-09-22,CAN
SYN-2026-01,DM,SYN-2026-01-SITE-103-021,SITE-103-021,SITE-103,2001-11-28,23,YEARS,F,A,Investigational product,2025-11-22,CAN
SYN-2026-01,DM,SYN-2026-01-SITE-103-040,SITE-103-040,SITE-103,1978-10-03,46,YEARS,F,A,Investigational product,2025-09-21,CAN
SYN-2026-01,DM,SYN-2026-01-SITE-103-043,SITE-103-043,SITE-103,1992-09-27,32,YEARS,F,A,Investigational product,2025-09-19,CAN
SYN-2026-01,DM,SYN-2026-01-SITE-103-067,SITE-103-067,SITE-103,2002-01-15,23,YEARS,M,A,Investigational product,2026-01-09,CAN
SYN-2026-01,DM,SYN-2026-01-SITE-103-084,SITE-103-084,SITE-103,1996-12-28,28,YEARS,F,B,Placebo,2025-12-21,CAN
SYN-2026-01,DM,SYN-2026-01-SITE-103-085,SITE-103-085,SITE-103,2003-03-08,22,YEARS,F,B,Placebo,2026-03-02,CAN
SYN-2026-01,DM,SYN-2026-01-SITE-103-093,SITE-103-093,SITE-103,1999-02-25,26,YEARS,F,B,Placebo,2026-02-18,CAN
SYN-2026-01,DM,SYN-2026-01-SITE-103-099,SITE-103-099,SITE-103,1951-10-28,73,YEARS,M,B,Placebo,2025-10-09,CAN
SYN-2026-01,DM,SYN-2026-01-SITE-103-100,SITE-103-100,SITE-103,1981-01-02,44,YEARS,F,A,Investigational product,2025-12-22,CAN
SYN-2026-01,DM,SYN-2026-01-SITE-103-102,SITE-103-102,SITE-103,1983-01-13,42,YEARS,F,A,Investigational product,2026-01-02,CAN
SYN-2026-01,DM,SYN-2026-01-SITE-103-120,SITE-103-120,SITE-103,1979-01-14,46,YEARS,M,B,Placebo,2026-01-02,CAN
SYN-2026-01,DM,SYN-2026-01-SITE-104-007,SITE-104-007,SITE-104,1951-12-15,73,YEARS,F,A,Investigational product,2025-11-26,CAN
SYN-2026-01,DM,SYN-2026-01-SITE-104-008,SITE-104-008,SITE-104,2002-03-15,23,YEARS,M,A,Investigational product,2026-03-09,CAN
SYN-2026-01,DM,SYN-2026-01-SITE-104-013,SITE-104-013,SITE-104,2000-03-18,25,YEARS,F,B,Placebo,2026-03-12,CAN
SYN-2026-01,DM,SYN-2026-01-SITE-104-015,SITE-104-015,SITE-104,1974-09-23,50,YEARS,M,A,Investigational product,2025-09-10,CAN
SYN-2026-01,DM,SYN-2026-01-SITE-104-016,SITE-104-016,SITE-104,1959-04-01,66,YEARS,M,B,Placebo,2026-03-15,CAN
SYN-2026-01,DM,SYN-2026-01-SITE-104-019,SITE-104-019,SITE-104,1963-01-06,62,YEARS,M,A,Investigational product,2025-12-21,CAN
SYN-2026-01,DM,SYN-2026-01-SITE-104-020,SITE-104-020,SITE-104,2007-10-08,17,YEARS,F,B,Placebo,2025-10-03,CAN
SYN-2026-01,DM,SYN-2026-01-SITE-104-029,SITE-104-029,SITE-104,2003-03-25,22,YEARS,F,A,Investigational product,2026-03-19,CAN
SYN-2026-01,DM,SYN-2026-01-SITE-104-032,SITE-104-032,SITE-104,1968-01-18,57,YEARS,F,B,Placebo,2026-01-03,CAN
SYN-2026-01,DM,SYN-2026-01-SITE-104-035,SITE-104-035,SITE-104,1996-09-14,28,YEARS,M,B,Placebo,2025-09-07,CAN
SYN-2026-01,DM,SYN-2026-01-SITE-104-038,SITE-104-038,SITE-104,1993-02-11,32,YEARS,M,B,Placebo,2026-02-03,CAN
SYN-2026-01,DM,SYN-2026-01-SITE-104-039,SITE-104-039,SITE-104,1973-09-22,51,YEARS,M,B,Placebo,2025-09-09,CAN
SYN-2026-01,DM,SYN-2026-01-SITE-104-045,SITE-104-045,SITE-104,1988-11-22,36,YEARS,F,A,Investigational product,2025-11-13,CAN
SYN-2026-01,DM,SYN-2026-01-SITE-104-047,SITE-104-047,SITE-104,1988-10-22,36,YEARS,M,B,Placebo,2025-10-13,CAN
SYN-2026-01,DM,SYN-2026-01-SITE-104-051,SITE-104-051,SITE-104,1975-12-25,49,YEARS,M,A,Investigational product,2025-12-12,CAN
SYN-2026-01,DM,SYN-2026-01-SITE-104-052,SITE-104-052,SITE-104,1959-04-16,66,YEARS,F,B,Placebo,2026-03-30,CAN
SYN-2026-01,DM,SYN-2026-01-SITE-104-056,SITE-104-056,SITE-104,1988-11-25,36,YEARS,M,A,Investigational product,2025-11-16,CAN
SYN-2026-01,DM,SYN-2026-01-SITE-104-060,SITE-104-060,SITE-104,1964-10-18,60,YEARS,M,B,Placebo,2025-10-03,CAN
SYN-2026-01,DM,SYN-2026-01-SITE-104-066,SITE-104-066,SITE-104,1961-12-14,63,YEARS,F,A,Investigational product,2025-11-28,CAN
SYN-2026-01,DM,SYN-2026-01-SITE-104-068,SITE-104-068,SITE-104,1990-12-26,34,YEARS,F,B,Placebo,2025-12-17,CAN
SYN-2026-01,DM,SYN-2026-01-SITE-104-073,SITE-104-073,SITE-104,2000-11-22,24,YEARS,F,A,Investigational product,2025-11-16,CAN
SYN-2026-01,DM,SYN-2026-01-SITE-104-074,SITE-104-074,SITE-104,1978-09-28,46,YEARS,F,A,Investigational product,2025-09-16,CAN
SYN-2026-01,DM,SYN-2026-01-SITE-104-076,SITE-104-076,SITE-104,1967-04-07,58,YEARS,M,B,Placebo,2026-03-23,CAN
SYN-2026-01,DM,SYN-2026-01-SITE-104-079,SITE-104-079,SITE-104,1965-09-22,59,YEARS,M,A,Investigational product,2025-09-07,CAN
SYN-2026-01,DM,SYN-2026-01-SITE-104-090,SITE-104-090,SITE-104,2001-02-07,24,YEARS,F,B,Placebo,2026-02-01,CAN
SYN-2026-01,DM,SYN-2026-01-SITE-104-091,SITE-104-091,SITE-104,2007-11-21,17,YEARS,F,A,Investigational product,2025-11-16,CAN
SYN-2026-01,DM,SYN-2026-01-SITE-104-092,SITE-104-092,SITE-104,2006-02-01,19,YEARS,F,A,Investigational product,2026-01-27,CAN
SYN-2026-01,DM,SYN-2026-01-SITE-104-101,SITE-104-101,SITE-104,1968-01-19,57,YEARS,F,B,Placebo,2026-01-04,CAN
SYN-2026-01,DM,SYN-2026-01-SITE-104-110,SITE-104-110,SITE-104,2000-10-15,24,YEARS,F,B,Placebo,2025-10-09,CAN
SYN-2026-01,DM,SYN-2026-01-SITE-104-112,SITE-104-112,SITE-104,1989-12-09,35,YEARS,M,B,Placebo,2025-11-30,CAN
SYN-2026-01,DM,SYN-2026-01-SITE-104-117,SITE-104-117,SITE-104,2003-12-11,21,YEARS,F,A,Investigational product,2025-12-05,CAN
SYN-2026-01,DM,SYN-2026-01-SITE-104-118,SITE-104-118,SITE-104,1959-01-07,66,YEARS,F,B,Placebo,2025-12-21,CAN
SYN-2026-01,DM,SYN-2026-01-SITE-105-001,SITE-105-001,SITE-105,2000-03-28,25,YEARS,M,B,Placebo,2026-03-22,CAN
SYN-2026-01,DM,SYN-2026-01-SITE-105-004,SITE-105-004,SITE-105,1953-03-24,72,YEARS,F,B,Placebo,2026-03-06,CAN
SYN-2026-01,DM,SYN-2026-01-SITE-105-011,SITE-105-011,SITE-105,1960-04-03,65,YEARS,F,A,Investigational product,2026-03-18,CAN
SYN-2026-01,DM,SYN-2026-01-SITE-105-017,SITE-105-017,SITE-105,1970-03-26,55,YEARS,M,A,Investigational product,2026-03-12,CAN
SYN-2026-01,DM,SYN-2026-01-SITE-105-022,SITE-105-022,SITE-105,1981-11-17,43,YEARS,F,A,Investigational product,2025-11-06,CAN
SYN-2026-01,DM,SYN-2026-01-SITE-105-030,SITE-105-030,SITE-105,1952-04-08,73,YEARS,F,A,Investigational product,2026-03-21,CAN
SYN-2026-01,DM,SYN-2026-01-SITE-105-031,SITE-105-031,SITE-105,2000-03-03,25,YEARS,F,B,Placebo,2026-02-25,CAN
SYN-2026-01,DM,SYN-2026-01-SITE-105-034,SITE-105-034,SITE-105,1999-01-02,26,YEARS,F,B,Placebo,2025-12-26,CAN
SYN-2026-01,DM,SYN-2026-01-SITE-105-036,SITE-105-036,SITE-105,1960-01-06,65,YEARS,M,A,Investigational product,2025-12-20,CAN
SYN-2026-01,DM,SYN-2026-01-SITE-105-037,SITE-105-037,SITE-105,1987-03-23,38,YEARS,F,B,Placebo,2026-03-13,CAN
SYN-2026-01,DM,SYN-2026-01-SITE-105-041,SITE-105-041,SITE-105,2005-11-29,19,YEARS,M,B,Placebo,2025-11-24,CAN
SYN-2026-01,DM,SYN-2026-01-SITE-105-042,SITE-105-042,SITE-105,1971-10-15,53,YEARS,M,B,Placebo,2025-10-01,CAN
SYN-2026-01,DM,SYN-2026-01-SITE-105-044,SITE-105-044,SITE-105,2003-03-03,22,YEARS,F,A,Investigational product,2026-02-25,CAN
SYN-2026-01,DM,SYN-2026-01-SITE-105-048,SITE-105-048,SITE-105,1962-02-15,63,YEARS,M,A,Investigational product,2026-01-30,CAN
SYN-2026-01,DM,SYN-2026-01-SITE-105-049,SITE-105-049,SITE-105,1999-09-10,25,YEARS,F,B,Placebo,2025-09-03,CAN
SYN-2026-01,DM,SYN-2026-01-SITE-105-050,SITE-105-050,SITE-105,1999-01-07,26,YEARS,F,A,Investigational product,2025-12-31,CAN
SYN-2026-01,DM,SYN-2026-01-SITE-105-054,SITE-105-054,SITE-105,2001-12-19,23,YEARS,F,A,Investigational product,2025-12-13,CAN
SYN-2026-01,DM,SYN-2026-01-SITE-105-059,SITE-105-059,SITE-105,1987-12-11,37,YEARS,M,B,Placebo,2025-12-01,CAN
SYN-2026-01,DM,SYN-2026-01-SITE-105-062,SITE-105-062,SITE-105,2004-11-01,20,YEARS,M,A,Investigational product,2025-10-27,CAN
SYN-2026-01,DM,SYN-2026-01-SITE-105-069,SITE-105-069,SITE-105,1989-11-22,35,YEARS,M,A,Investigational product,2025-11-13,CAN
SYN-2026-01,DM,SYN-2026-01-SITE-105-071,SITE-105-071,SITE-105,1950-12-06,74,YEARS,M,B,Placebo,2025-11-17,CAN
SYN-2026-01,DM,SYN-2026-01-SITE-105-072,SITE-105-072,SITE-105,2004-12-10,20,YEARS,F,A,Investigational product,2025-12-05,CAN
SYN-2026-01,DM,SYN-2026-01-SITE-105-077,SITE-105-077,SITE-105,1979-03-28,46,YEARS,F,B,Placebo,2026-03-16,CAN
SYN-2026-01,DM,SYN-2026-01-SITE-105-080,SITE-105-080,SITE-105,1951-03-19,74,YEARS,M,A,Investigational product,2026-02-28,CAN
SYN-2026-01,DM,SYN-2026-01-SITE-105-081,SITE-105-081,SITE-105,1968-12-21,56,YEARS,M,A,Investigational product,2025-12-07,CAN
SYN-2026-01,DM,SYN-2026-01-SITE-105-089,SITE-105-089,SITE-105,2000-03-23,25,YEARS,F,B,Placebo,2026-03-17,CAN
SYN-2026-01,DM,SYN-2026-01-SITE-105-094,SITE-105-094,SITE-105,1980-03-01,45,YEARS,F,B,Placebo,2026-02-18,CAN
SYN-2026-01,DM,SYN-2026-01-SITE-105-098,SITE-105-098,SITE-105,1971-10-11,53,YEARS,F,A,Investigational product,2025-09-27,CAN
SYN-2026-01,DM,SYN-2026-01-SITE-105-109,SITE-105-109,SITE-105,1982-02-26,43,YEARS,F,A,Investigational product,2026-02-15,CAN
SYN-2026-01,DM,SYN-2026-01-SITE-105-111,SITE-105-111,SITE-105,1983-03-08,42,YEARS,F,A,Investigational product,2026-02-25,CAN
SYN-2026-01,DM,SYN-2026-01-SITE-105-115,SITE-105-115,SITE-105,1996-09-09,28,YEARS,M,B,Placebo,2025-09-02,CAN
