STUDYID,DOMAIN,USUBJID,VSSEQ,VSTESTCD,VSTEST,VSORRES,VSORRESU,VSSTRESN,VSSTRESU,VSDTC,VISIT,VISITNUM
SYN-2026-01,VS,SYN-2026-01-SITE-101-012,1,SYSBP,Systolic Blood Pressure,121,mmHg,121,mmHg,2025-12-14,Screening,1
SYN-2026-01,VS,SYN-2026-01-SITE-101-012,2,DIABP,Diastolic Blood Pressure,94,mmHg,94,mmHg,2025-12-14,Screening,1
SYN-2026-01,VS,SYN-2026-01-SITE-101-012,3,PULSE,Pulse Rate,75,beats/min,75,beats/min,2025-12-14,Screening,1
SYN-2026-01,VS,SYN-2026-01-SITE-101-012,4,TEMP,Temperature,36.7,C,36.7,C,2025-12-14,Screening,1
SYN-2026-01,VS,SYN-2026-01-SITE-101-012,5,WEIGHT,Weight,86.2,kg,86.2,kg,2025-12-14,Screening,1
SYN-2026-01,VS,SYN-2026-01-SITE-101-012,6,SYSBP,Systolic Blood Pressure,98,mmHg,98,mmHg,2026-01-04,Baseline / Day 1,2
SYN-2026-01,VS,SYN-2026-01-SITE-101-012,7,DIABP,Diastolic Blood Pressure,80,mmHg,80,mmHg,2026-01-04,Baseline / Day 1,2
SYN-2026-01,VS,SYN-2026-01-SITE-101-012,8,PULSE,Pulse Rate,88,beats/min,88,beats/min,2026-01-04,Baseline / Day 1,2
SYN-2026-01,VS,SYN-2026-01-SITE-101-012,9,TEMP,Temperature,36.9,C,36.9,C,2026-01-04,Baseline / Day 1,2
SYN-2026-01,VS,SYN-2026-01-SITE-101-012,10,WEIGHT,Weight,96.9,kg,96.9,kg,2026-01-04,Baseline / Day 1,2
SYN-2026-01,VS,SYN-2026-01-SITE-101-012,11,SYSBP,Systolic Blood Pressure,127,mmHg,127,mmHg,2026-01-28,Week 4,3
SYN-2026-01,VS,SYN-2026-01-SITE-101-012,12,DIABP,Diastolic Blood Pressure,84,mmHg,84,mmHg,2026-01-28,Week 4,3
SYN-2026-01,VS,SYN-2026-01-SITE-101-012,13,PULSE,Pulse Rate,87,beats/min,87,beats/min,2026-01-28,Week 4,3
SYN-2026-01,VS,SYN-2026-01-SITE-101-012,14,TEMP,Temperature,37.1,C,37.1,C,2026-01-28,Week 4,3
SYN-2026-01,VS,SYN-2026-01-SITE-101-012,15,WEIGHT,Weight,81.7,kg,81.7,kg,2026-01-28,Week 4,3
SYN-2026-01,VS,SYN-2026-01-SITE-101-012,16,SYSBP,Systolic Blood Pressure,151,mmHg,151,mmHg,2026-03-28,Week 12,4
SYN-2026-01,VS,SYN-2026-01-SITE-101-012,17,DIABP,Diastolic Blood Pressure,86,mmHg,86,mmHg,2026-03-28,Week 12,4
SYN-2026-01,VS,SYN-2026-01-SITE-101-012,18,PULSE,Pulse Rate,73,beats/min,73,beats/min,2026-03-28,Week 12,4
SYN-2026-01,VS,SYN-2026-01-SITE-101-012,19,TEMP,Temperature,36.9,C,36.9,C,2026-03-28,Week 12,4
SYN-2026-01,VS,SYN-2026-01-SITE-101-012,20,SYSBP,Systolic Blood Pressure,125,mmHg,125,mmHg,2026-06-20,End of study,5
SYN-2026-01,VS,SYN-2026-01-SITE-101-012,21,DIABP,Diastolic Blood Pressure,77,mmHg,77,mmHg,2026-06-20,End of study,5
SYN-2026-01,VS,SYN-2026-01-SITE-101-012,22,PULSE,Pulse Rate,78,beats/min,78,beats/min,2026-06-20,End of study,5
SYN-2026-01,VS,SYN-2026-01-SITE-101-012,23,TEMP,Temperature,36.9,C,36.9,C,2026-06-20,End of study,5
SYN-2026-01,VS,SYN-2026-01-SITE-101-012,24,WEIGHT,Weight,68.7,kg,68.7,kg,2026-06-20,End of study,5
SYN-2026-01,VS,SYN-2026-01-SITE-101-014,1,SYSBP,Systolic Blood Pressure,126,mmHg,126,mmHg,2025-10-18,Screening,1
SYN-2026-01,VS,SYN-2026-01-SITE-101-014,2,DIABP,Diastolic Blood Pressure,75,mmHg,75,mmHg,2025-10-18,Screening,1
SYN-2026-01,VS,SYN-2026-01-SITE-101-014,3,PULSE,Pulse Rate,83,beats/min,83,beats/min,2025-10-18,Screening,1
SYN-2026-01,VS,SYN-2026-01-SITE-101-014,4,WEIGHT,Weight,55.3,kg,55.3,kg,2025-10-18,Screening,1
SYN-2026-01,VS,SYN-2026-01-SITE-101-014,5,SYSBP,Systolic Blood Pressure,136,mmHg,136,mmHg,2025-10-26,Baseline / Day 1,2
SYN-2026-01,VS,SYN-2026-01-SITE-101-014,6,DIABP,Diastolic Blood Pressure,81,mmHg,81,mmHg,2025-10-26,Baseline / Day 1,2
SYN-2026-01,VS,SYN-2026-01-SITE-101-014,7,PULSE,Pulse Rate,68,beats/min,68,beats/min,2025-10-26,Baseline / Day 1,2
SYN-2026-01,VS,SYN-2026-01-SITE-101-014,8,TEMP,Temperature,37.1,C,37.1,C,2025-10-26,Baseline / Day 1,2
SYN-2026-01,VS,SYN-2026-01-SITE-101-014,9,WEIGHT,Weight,61.3,kg,61.3,kg,2025-10-26,Baseline / Day 1,2
SYN-2026-01,VS,SYN-2026-01-SITE-101-014,10,SYSBP,Systolic Blood Pressure,120,mmHg,120,mmHg,2025-11-19,Week 4,3
SYN-2026-01,VS,SYN-2026-01-SITE-101-014,11,DIABP,Diastolic Blood Pressure,83,mmHg,83,mmHg,2025-11-19,Week 4,3
SYN-2026-01,VS,SYN-2026-01-SITE-101-014,12,PULSE,Pulse Rate,89,beats/min,89,beats/min,2025-11-19,Week 4,3
SYN-2026-01,VS,SYN-2026-01-SITE-101-014,13,TEMP,Temperature,36.4,C,36.4,C,2025-11-19,Week 4,3
SYN-2026-01,VS,SYN-2026-01-SITE-101-014,14,WEIGHT,Weight,78.9,kg,78.9,kg,2025-11-19,Week 4,3
SYN-2026-01,VS,SYN-2026-01-SITE-101-014,15,SYSBP,Systolic Blood Pressure,110,mmHg,110,mmHg,2026-01-21,Week 12,4
SYN-2026-01,VS,SYN-2026-01-SITE-101-014,16,DIABP,Diastolic Blood Pressure,75,mmHg,75,mmHg,2026-01-21,Week 12,4
SYN-2026-01,VS,SYN-2026-01-SITE-101-014,17,PULSE,Pulse Rate,63,beats/min,63,beats/min,2026-01-21,Week 12,4
SYN-2026-01,VS,SYN-2026-01-SITE-101-014,18,TEMP,Temperature,36.5,C,36.5,C,2026-01-21,Week 12,4
SYN-2026-01,VS,SYN-2026-01-SITE-101-014,19,WEIGHT,Weight,88.3,kg,88.3,kg,2026-01-21,Week 12,4
SYN-2026-01,VS,SYN-2026-01-SITE-101-014,20,SYSBP,Systolic Blood Pressure,136,mmHg,136,mmHg,2026-04-10,End of study,5
SYN-2026-01,VS,SYN-2026-01-SITE-101-014,21,DIABP,Diastolic Blood Pressure,78,mmHg,78,mmHg,2026-04-10,End of study,5
SYN-2026-01,VS,SYN-2026-01-SITE-101-014,22,PULSE,Pulse Rate,66,beats/min,66,beats/min,2026-04-10,End of study,5
SYN-2026-01,VS,SYN-2026-01-SITE-101-014,23,TEMP,Temperature,37.4,C,37.4,C,2026-04-10,End of study,5
SYN-2026-01,VS,SYN-2026-01-SITE-101-014,24,WEIGHT,Weight,79.6,kg,79.6,kg,2026-04-10,End of study,5
SYN-2026-01,VS,SYN-2026-01-SITE-101-018,1,SYSBP,Systolic Blood Pressure,115,mmHg,115,mmHg,2026-01-18,Screening,1
SYN-2026-01,VS,SYN-2026-01-SITE-101-018,2,DIABP,Diastolic Blood Pressure,89,mmHg,89,mmHg,2026-01-18,Screening,1
SYN-2026-01,VS,SYN-2026-01-SITE-101-018,3,PULSE,Pulse Rate,56,beats/min,56,beats/min,2026-01-18,Screening,1
SYN-2026-01,VS,SYN-2026-01-SITE-101-018,4,TEMP,Temperature,36.5,C,36.5,C,2026-01-18,Screening,1
SYN-2026-01,VS,SYN-2026-01-SITE-101-018,5,WEIGHT,Weight,91.0,kg,91.0,kg,2026-01-18,Screening,1
SYN-2026-01,VS,SYN-2026-01-SITE-101-018,6,SYSBP,Systolic Blood Pressure,127,mmHg,127,mmHg,2026-02-02,Baseline / Day 1,2
SYN-2026-01,VS,SYN-2026-01-SITE-101-018,7,DIABP,Diastolic Blood Pressure,88,mmHg,88,mmHg,2026-02-02,Baseline / Day 1,2
SYN-2026-01,VS,SYN-2026-01-SITE-101-018,8,PULSE,Pulse Rate,65,beats/min,65,beats/min,2026-02-02,Baseline / Day 1,2
SYN-2026-01,VS,SYN-2026-01-SITE-101-018,9,TEMP,Temperature,36.9,C,36.9,C,2026-02-02,Baseline / Day 1,2
SYN-2026-01,VS,SYN-2026-01-SITE-101-018,10,WEIGHT,Weight,61.0,kg,61.0,kg,2026-02-02,Baseline / Day 1,2
SYN-2026-01,VS,SYN-2026-01-SITE-101-018,11,SYSBP,Systolic Blood Pressure,131,mmHg,131,mmHg,2026-02-27,Week 4,3
SYN-2026-01,VS,SYN-2026-01-SITE-101-018,12,DIABP,Diastolic Blood Pressure,84,mmHg,84,mmHg,2026-02-27,Week 4,3
SYN-2026-01,VS,SYN-2026-01-SITE-101-018,13,PULSE,Pulse Rate,71,beats/min,71,beats/min,2026-02-27,Week 4,3
SYN-2026-01,VS,SYN-2026-01-SITE-101-018,14,TEMP,Temperature,36.8,C,36.8,C,2026-02-27,Week 4,3
SYN-2026-01,VS,SYN-2026-01-SITE-101-018,15,WEIGHT,Weight,79.0,kg,79.0,kg,2026-02-27,Week 4,3
SYN-2026-01,VS,SYN-2026-01-SITE-101-018,16,SYSBP,Systolic Blood Pressure,151,mmHg,151,mmHg,2026-04-25,Week 12,4
SYN-2026-01,VS,SYN-2026-01-SITE-101-018,17,DIABP,Diastolic Blood Pressure,58,mmHg,58,mmHg,2026-04-25,Week 12,4
SYN-2026-01,VS,SYN-2026-01-SITE-101-018,18,PULSE,Pulse Rate,62,beats/min,62,beats/min,2026-04-25,Week 12,4
SYN-2026-01,VS,SYN-2026-01-SITE-101-018,19,TEMP,Temperature,36.7,C,36.7,C,2026-04-25,Week 12,4
SYN-2026-01,VS,SYN-2026-01-SITE-101-018,20,WEIGHT,Weight,77.9,kg,77.9,kg,2026-04-25,Week 12,4
SYN-2026-01,VS,SYN-2026-01-SITE-101-018,21,SYSBP,Systolic Blood Pressure,100,mmHg,100,mmHg,2026-07-18,End of study,5
SYN-2026-01,VS,SYN-2026-01-SITE-101-018,22,DIABP,Diastolic Blood Pressure,81,mmHg,81,mmHg,2026-07-18,End of study,5
SYN-2026-01,VS,SYN-2026-01-SITE-101-018,23,PULSE,Pulse Rate,95,beats/min,95,beats/min,2026-07-18,End of study,5
SYN-2026-01,VS,SYN-2026-01-SITE-101-018,24,TEMP,Temperature,36.4,C,36.4,C,2026-07-18,End of study,5
SYN-2026-01,VS,SYN-2026-01-SITE-101-018,25,WEIGHT,Weight,67.4,kg,67.4,kg,2026-07-18,End of study,5
SYN-2026-01,VS,SYN-2026-01-SITE-101-053,1,SYSBP,Systolic Blood Pressure,137,mmHg,137,mmHg,2026-02-20,Screening,1
SYN-2026-01,VS,SYN-2026-01-SITE-101-053,2,DIABP,Diastolic Blood Pressure,82,mmHg,82,mmHg,2026-02-20,Screening,1
SYN-2026-01,VS,SYN-2026-01-SITE-101-053,3,PULSE,Pulse Rate,72,beats/min,72,beats/min,2026-02-20,Screening,1
SYN-2026-01,VS,SYN-2026-01-SITE-101-053,4,TEMP,Temperature,37.0,C,37.0,C,2026-02-20,Screening,1
SYN-2026-01,VS,SYN-2026-01-SITE-101-053,5,WEIGHT,Weight,84.9,kg,84.9,kg,2026-02-20,Screening,1
SYN-2026-01,VS,SYN-2026-01-SITE-101-053,6,SYSBP,Systolic Blood Pressure,121,mmHg,121,mmHg,2026-02-28,Baseline / Day 1,2
SYN-2026-01,VS,SYN-2026-01-SITE-101-053,7,DIABP,Diastolic Blood Pressure,84,mmHg,84,mmHg,2026-02-28,Baseline / Day 1,2
SYN-2026-01,VS,SYN-2026-01-SITE-101-053,8,PULSE,Pulse Rate,70,beats/min,70,beats/min,2026-02-28,Baseline / Day 1,2
SYN-2026-01,VS,SYN-2026-01-SITE-101-053,9,TEMP,Temperature,36.8,C,36.8,C,2026-02-28,Baseline / Day 1,2
SYN-2026-01,VS,SYN-2026-01-SITE-101-053,10,WEIGHT,Weight,56.7,kg,56.7,kg,2026-02-28,Baseline / Day 1,2
SYN-2026-01,VS,SYN-2026-01-SITE-101-053,11,SYSBP,Systolic Blood Pressure,131,mmHg,131,mmHg,2026-03-30,Week 4,3
SYN-2026-01,VS,SYN-2026-01-SITE-101-053,12,DIABP,Diastolic Blood Pressure,77,mmHg,77,mmHg,2026-03-30,Week 4,3
SYN-2026-01,VS,SYN-2026-01-SITE-101-053,13,PULSE,Pulse Rate,87,beats/min,87,beats/min,2026-03-30,Week 4,3
SYN-2026-01,VS,SYN-2026-01-SITE-101-053,14,TEMP,Temperature,37.3,C,37.3,C,2026-03-30,Week 4,3
SYN-2026-01,VS,SYN-2026-01-SITE-101-053,15,WEIGHT,Weight,94.5,kg,94.5,kg,2026-03-30,Week 4,3
SYN-2026-01,VS,SYN-2026-01-SITE-101-053,16,SYSBP,Systolic Blood Pressure,117,mmHg,117,mmHg,2026-05-26,Week 12,4
SYN-2026-01,VS,SYN-2026-01-SITE-101-053,17,DIABP,Diastolic Blood Pressure,67,mmHg,67,mmHg,2026-05-26,Week 12,4
SYN-2026-01,VS,SYN-2026-01-SITE-101-053,18,PULSE,Pulse Rate,71,beats/min,71,beats/min,2026-05-26,Week 12,4
SYN-2026-01,VS,SYN-2026-01-SITE-101-053,19,TEMP,Temperature,35.8,C,35.8,C,2026-05-26,Week 12,4
SYN-2026-01,VS,SYN-2026-01-SITE-101-053,20,WEIGHT,Weight,87.0,kg,87.0,kg,2026-05-26,Week 12,4
SYN-2026-01,VS,SYN-2026-01-SITE-101-057,1,SYSBP,Systolic Blood Pressure,122,mmHg,122,mmHg,2025-10-04,Screening,1
SYN-2026-01,VS,SYN-2026-01-SITE-101-057,2,DIABP,Diastolic Blood Pressure,92,mmHg,92,mmHg,2025-10-04,Screening,1
SYN-2026-01,VS,SYN-2026-01-SITE-101-057,3,PULSE,Pulse Rate,86,beats/min,86,beats/min,2025-10-04,Screening,1
SYN-2026-01,VS,SYN-2026-01-SITE-101-057,4,TEMP,Temperature,36.9,C,36.9,C,2025-10-04,Screening,1
SYN-2026-01,VS,SYN-2026-01-SITE-101-057,5,WEIGHT,Weight,95.0,kg,95.0,kg,2025-10-04,Screening,1
SYN-2026-01,VS,SYN-2026-01-SITE-101-057,6,SYSBP,Systolic Blood Pressure,121,mmHg,121,mmHg,2025-10-16,Baseline / Day 1,2
SYN-2026-01,VS,SYN-2026-01-SITE-101-057,7,DIABP,Diastolic Blood Pressure,86,mmHg,86,mmHg,2025-10-16,Baseline / Day 1,2
SYN-2026-01,VS,SYN-2026-01-SITE-101-057,8,PULSE,Pulse Rate,79,beats/min,79,beats/min,2025-10-16,Baseline / Day 1,2
SYN-2026-01,VS,SYN-2026-01-SITE-101-057,9,TEMP,Temperature,36.3,C,36.3,C,2025-10-16,Baseline / Day 1,2
SYN-2026-01,VS,SYN-2026-01-SITE-101-057,10,WEIGHT,Weight,96.2,kg,96.2,kg,2025-10-16,Baseline / Day 1,2
SYN-2026-01,VS,SYN-2026-01-SITE-101-057,11,SYSBP,Systolic Blood Pressure,122,mmHg,122,mmHg,2025-11-15,Week 4,3
SYN-2026-01,VS,SYN-2026-01-SITE-101-057,12,DIABP,Diastolic Blood Pressure,90,mmHg,90,mmHg,2025-11-15,Week 4,3
SYN-2026-01,VS,SYN-2026-01-SITE-101-057,13,PULSE,Pulse Rate,79,beats/min,79,beats/min,2025-11-15,Week 4,3
SYN-2026-01,VS,SYN-2026-01-SITE-101-057,14,TEMP,Temperature,36.1,C,36.1,C,2025-11-15,Week 4,3
SYN-2026-01,VS,SYN-2026-01-SITE-101-057,15,WEIGHT,Weight,88.8,kg,88.8,kg,2025-11-15,Week 4,3
SYN-2026-01,VS,SYN-2026-01-SITE-101-057,16,SYSBP,Systolic Blood Pressure,151,mmHg,151,mmHg,2026-01-02,Week 12,4
SYN-2026-01,VS,SYN-2026-01-SITE-101-057,17,DIABP,Diastolic Blood Pressure,86,mmHg,86,mmHg,2026-01-02,Week 12,4
SYN-2026-01,VS,SYN-2026-01-SITE-101-057,18,PULSE,Pulse Rate,65,beats/min,65,beats/min,2026-01-02,Week 12,4
SYN-2026-01,VS,SYN-2026-01-SITE-101-057,19,TEMP,Temperature,36.6,C,36.6,C,2026-01-02,Week 12,4
SYN-2026-01,VS,SYN-2026-01-SITE-101-057,20,WEIGHT,Weight,74.3,kg,74.3,kg,2026-01-02,Week 12,4
SYN-2026-01,VS,SYN-2026-01-SITE-101-057,21,SYSBP,Systolic Blood Pressure,135,mmHg,135,mmHg,2026-03-30,End of study,5
SYN-2026-01,VS,SYN-2026-01-SITE-101-057,22,DIABP,Diastolic Blood Pressure,66,mmHg,66,mmHg,2026-03-30,End of study,5
SYN-2026-01,VS,SYN-2026-01-SITE-101-057,23,PULSE,Pulse Rate,72,beats/min,72,beats/min,2026-03-30,End of study,5
SYN-2026-01,VS,SYN-2026-01-SITE-101-057,24,TEMP,Temperature,36.5,C,36.5,C,2026-03-30,End of study,5
SYN-2026-01,VS,SYN-2026-01-SITE-101-057,25,WEIGHT,Weight,99.6,kg,99.6,kg,2026-03-30,End of study,5
SYN-2026-01,VS,SYN-2026-01-SITE-101-058,1,SYSBP,Systolic Blood Pressure,143,mmHg,143,mmHg,2026-02-02,Screening,1
SYN-2026-01,VS,SYN-2026-01-SITE-101-058,2,DIABP,Diastolic Blood Pressure,83,mmHg,83,mmHg,2026-02-02,Screening,1
SYN-2026-01,VS,SYN-2026-01-SITE-101-058,3,PULSE,Pulse Rate,85,beats/min,85,beats/min,2026-02-02,Screening,1
SYN-2026-01,VS,SYN-2026-01-SITE-101-058,4,TEMP,Temperature,36.5,C,36.5,C,2026-02-02,Screening,1
SYN-2026-01,VS,SYN-2026-01-SITE-101-058,5,WEIGHT,Weight,91.5,kg,91.5,kg,2026-02-02,Screening,1
SYN-2026-01,VS,SYN-2026-01-SITE-101-058,6,SYSBP,Systolic Blood Pressure,139,mmHg,139,mmHg,2026-02-11,Baseline / Day 1,2
SYN-2026-01,VS,SYN-2026-01-SITE-101-058,7,DIABP,Diastolic Blood Pressure,84,mmHg,84,mmHg,2026-02-11,Baseline / Day 1,2
SYN-2026-01,VS,SYN-2026-01-SITE-101-058,8,PULSE,Pulse Rate,65,beats/min,65,beats/min,2026-02-11,Baseline / Day 1,2
SYN-2026-01,VS,SYN-2026-01-SITE-101-058,9,TEMP,Temperature,36.9,C,36.9,C,2026-02-11,Baseline / Day 1,2
SYN-2026-01,VS,SYN-2026-01-SITE-101-058,10,WEIGHT,Weight,109.6,kg,109.6,kg,2026-02-11,Baseline / Day 1,2
SYN-2026-01,VS,SYN-2026-01-SITE-101-058,11,SYSBP,Systolic Blood Pressure,137,mmHg,137,mmHg,2026-03-07,Week 4,3
SYN-2026-01,VS,SYN-2026-01-SITE-101-058,12,DIABP,Diastolic Blood Pressure,83,mmHg,83,mmHg,2026-03-07,Week 4,3
SYN-2026-01,VS,SYN-2026-01-SITE-101-058,13,PULSE,Pulse Rate,77,beats/min,77,beats/min,2026-03-07,Week 4,3
SYN-2026-01,VS,SYN-2026-01-SITE-101-058,14,TEMP,Temperature,36.7,C,36.7,C,2026-03-07,Week 4,3
SYN-2026-01,VS,SYN-2026-01-SITE-101-058,15,WEIGHT,Weight,51.8,kg,51.8,kg,2026-03-07,Week 4,3
SYN-2026-01,VS,SYN-2026-01-SITE-101-058,16,SYSBP,Systolic Blood Pressure,120,mmHg,120,mmHg,2026-05-08,Week 12,4
SYN-2026-01,VS,SYN-2026-01-SITE-101-058,17,DIABP,Diastolic Blood Pressure,68,mmHg,68,mmHg,2026-05-08,Week 12,4
SYN-2026-01,VS,SYN-2026-01-SITE-101-058,18,PULSE,Pulse Rate,66,beats/min,66,beats/min,2026-05-08,Week 12,4
SYN-2026-01,VS,SYN-2026-01-SITE-101-058,19,TEMP,Temperature,36.9,C,36.9,C,2026-05-08,Week 12,4
SYN-2026-01,VS,SYN-2026-01-SITE-101-058,20,WEIGHT,Weight,108.2,kg,108.2,kg,2026-05-08,Week 12,4
SYN-2026-01,VS,SYN-2026-01-SITE-101-058,21,SYSBP,Systolic Blood Pressure,144,mmHg,144,mmHg,2026-07-23,End of study,5
SYN-2026-01,VS,SYN-2026-01-SITE-101-058,22,DIABP,Diastolic Blood Pressure,72,mmHg,72,mmHg,2026-07-23,End of study,5
SYN-2026-01,VS,SYN-2026-01-SITE-101-058,23,PULSE,Pulse Rate,73,beats/min,73,beats/min,2026-07-23,End of study,5
SYN-2026-01,VS,SYN-2026-01-SITE-101-058,24,TEMP,Temperature,36.2,C,36.2,C,2026-07-23,End of study,5
SYN-2026-01,VS,SYN-2026-01-SITE-101-058,25,WEIGHT,Weight,73.5,kg,73.5,kg,2026-07-23,End of study,5
SYN-2026-01,VS,SYN-2026-01-SITE-101-063,1,SYSBP,Systolic Blood Pressure,131,mmHg,131,mmHg,2026-02-12,Screening,1
SYN-2026-01,VS,SYN-2026-01-SITE-101-063,2,DIABP,Diastolic Blood Pressure,79,mmHg,79,mmHg,2026-02-12,Screening,1
SYN-2026-01,VS,SYN-2026-01-SITE-101-063,3,PULSE,Pulse Rate,79,beats/min,79,beats/min,2026-02-12,Screening,1
SYN-2026-01,VS,SYN-2026-01-SITE-101-063,4,TEMP,Temperature,36.7,C,36.7,C,2026-02-12,Screening,1
SYN-2026-01,VS,SYN-2026-01-SITE-101-063,5,WEIGHT,Weight,69.5,kg,69.5,kg,2026-02-12,Screening,1
SYN-2026-01,VS,SYN-2026-01-SITE-101-063,6,SYSBP,Systolic Blood Pressure,148,mmHg,148,mmHg,2026-03-01,Baseline / Day 1,2
SYN-2026-01,VS,SYN-2026-01-SITE-101-063,7,DIABP,Diastolic Blood Pressure,79,mmHg,79,mmHg,2026-03-01,Baseline / Day 1,2
SYN-2026-01,VS,SYN-2026-01-SITE-101-063,8,PULSE,Pulse Rate,78,beats/min,78,beats/min,2026-03-01,Baseline / Day 1,2
SYN-2026-01,VS,SYN-2026-01-SITE-101-063,9,TEMP,Temperature,36.0,C,36.0,C,2026-03-01,Baseline / Day 1,2
SYN-2026-01,VS,SYN-2026-01-SITE-101-063,10,WEIGHT,Weight,63.1,kg,63.1,kg,2026-03-01,Baseline / Day 1,2
SYN-2026-01,VS,SYN-2026-01-SITE-101-063,11,SYSBP,Systolic Blood Pressure,140,mmHg,140,mmHg,2026-03-29,Week 4,3
SYN-2026-01,VS,SYN-2026-01-SITE-101-063,12,DIABP,Diastolic Blood Pressure,53,mmHg,53,mmHg,2026-03-29,Week 4,3
SYN-2026-01,VS,SYN-2026-01-SITE-101-063,13,PULSE,Pulse Rate,58,beats/min,58,beats/min,2026-03-29,Week 4,3
SYN-2026-01,VS,SYN-2026-01-SITE-101-063,14,TEMP,Temperature,37.1,C,37.1,C,2026-03-29,Week 4,3
SYN-2026-01,VS,SYN-2026-01-SITE-101-063,15,WEIGHT,Weight,42.8,kg,42.8,kg,2026-03-29,Week 4,3
SYN-2026-01,VS,SYN-2026-01-SITE-101-063,16,SYSBP,Systolic Blood Pressure,133,mmHg,133,mmHg,2026-05-25,Week 12,4
SYN-2026-01,VS,SYN-2026-01-SITE-101-063,17,DIABP,Diastolic Blood Pressure,83,mmHg,83,mmHg,2026-05-25,Week 12,4
SYN-2026-01,VS,SYN-2026-01-SITE-101-063,18,PULSE,Pulse Rate,75,beats/min,75,beats/min,2026-05-25,Week 12,4
SYN-2026-01,VS,SYN-2026-01-SITE-101-063,19,TEMP,Temperature,36.4,C,36.4,C,2026-05-25,Week 12,4
SYN-2026-01,VS,SYN-2026-01-SITE-101-063,20,WEIGHT,Weight,85.9,kg,85.9,kg,2026-05-25,Week 12,4
SYN-2026-01,VS,SYN-2026-01-SITE-101-063,21,SYSBP,Systolic Blood Pressure,110,mmHg,110,mmHg,2026-08-11,End of study,5
SYN-2026-01,VS,SYN-2026-01-SITE-101-063,22,DIABP,Diastolic Blood Pressure,91,mmHg,91,mmHg,2026-08-11,End of study,5
SYN-2026-01,VS,SYN-2026-01-SITE-101-063,23,PULSE,Pulse Rate,72,beats/min,72,beats/min,2026-08-11,End of study,5
SYN-2026-01,VS,SYN-2026-01-SITE-101-063,24,TEMP,Temperature,36.1,C,36.1,C,2026-08-11,End of study,5
SYN-2026-01,VS,SYN-2026-01-SITE-101-063,25,WEIGHT,Weight,92.9,kg,92.9,kg,2026-08-11,End of study,5
SYN-2026-01,VS,SYN-2026-01-SITE-101-075,1,SYSBP,Systolic Blood Pressure,118,mmHg,118,mmHg,2025-10-04,Screening,1
SYN-2026-01,VS,SYN-2026-01-SITE-101-075,2,DIABP,Diastolic Blood Pressure,92,mmHg,92,mmHg,2025-10-04,Screening,1
SYN-2026-01,VS,SYN-2026-01-SITE-101-075,3,PULSE,Pulse Rate,69,beats/min,69,beats/min,2025-10-04,Screening,1
SYN-2026-01,VS,SYN-2026-01-SITE-101-075,4,TEMP,Temperature,36.6,C,36.6,C,2025-10-04,Screening,1
SYN-2026-01,VS,SYN-2026-01-SITE-101-075,5,WEIGHT,Weight,94.9,kg,94.9,kg,2025-10-04,Screening,1
SYN-2026-01,VS,SYN-2026-01-SITE-101-075,6,SYSBP,Systolic Blood Pressure,109,mmHg,109,mmHg,2025-10-20,Baseline / Day 1,2
SYN-2026-01,VS,SYN-2026-01-SITE-101-075,7,DIABP,Diastolic Blood Pressure,78,mmHg,78,mmHg,2025-10-20,Baseline / Day 1,2
SYN-2026-01,VS,SYN-2026-01-SITE-101-075,8,PULSE,Pulse Rate,78,beats/min,78,beats/min,2025-10-20,Baseline / Day 1,2
SYN-2026-01,VS,SYN-2026-01-SITE-101-075,9,WEIGHT,Weight,79.2,kg,79.2,kg,2025-10-20,Baseline / Day 1,2
SYN-2026-01,VS,SYN-2026-01-SITE-101-075,10,SYSBP,Systolic Blood Pressure,139,mmHg,139,mmHg,2025-11-18,Week 4,3
SYN-2026-01,VS,SYN-2026-01-SITE-101-075,11,DIABP,Diastolic Blood Pressure,79,mmHg,79,mmHg,2025-11-18,Week 4,3
SYN-2026-01,VS,SYN-2026-01-SITE-101-075,12,PULSE,Pulse Rate,66,beats/min,66,beats/min,2025-11-18,Week 4,3
SYN-2026-01,VS,SYN-2026-01-SITE-101-075,13,TEMP,Temperature,35.9,C,35.9,C,2025-11-18,Week 4,3
SYN-2026-01,VS,SYN-2026-01-SITE-101-075,14,WEIGHT,Weight,42.0,kg,42.0,kg,2025-11-18,Week 4,3
SYN-2026-01,VS,SYN-2026-01-SITE-101-075,15,SYSBP,Systolic Blood Pressure,124,mmHg,124,mmHg,2026-01-08,Week 12,4
SYN-2026-01,VS,SYN-2026-01-SITE-101-075,16,DIABP,Diastolic Blood Pressure,84,mmHg,84,mmHg,2026-01-08,Week 12,4
SYN-2026-01,VS,SYN-2026-01-SITE-101-075,17,PULSE,Pulse Rate,54,beats/min,54,beats/min,2026-01-08,Week 12,4
SYN-2026-01,VS,SYN-2026-01-SITE-101-075,18,TEMP,Temperature,36.2,C,36.2,C,2026-01-08,Week 12,4
SYN-2026-01,VS,SYN-2026-01-SITE-101-075,19,WEIGHT,Weight,102.9,kg,102.9,kg,2026-01-08,Week 12,4
SYN-2026-01,VS,SYN-2026-01-SITE-101-075,20,SYSBP,Systolic Blood Pressure,96,mmHg,96,mmHg,2026-04-11,End of study,5
SYN-2026-01,VS,SYN-2026-01-SITE-101-075,21,DIABP,Diastolic Blood Pressure,81,mmHg,81,mmHg,2026-04-11,End of study,5
SYN-2026-01,VS,SYN-2026-01-SITE-101-075,22,PULSE,Pulse Rate,75,beats/min,75,beats/min,2026-04-11,End of study,5
SYN-2026-01,VS,SYN-2026-01-SITE-101-075,23,TEMP,Temperature,37.1,C,37.1,C,2026-04-11,End of study,5
SYN-2026-01,VS,SYN-2026-01-SITE-101-075,24,WEIGHT,Weight,42.0,kg,42.0,kg,2026-04-11,End of study,5
SYN-2026-01,VS,SYN-2026-01-SITE-101-078,1,SYSBP,Systolic Blood Pressure,122,mmHg,122,mmHg,2025-10-12,Screening,1
SYN-2026-01,VS,SYN-2026-01-SITE-101-078,2,DIABP,Diastolic Blood Pressure,76,mmHg,76,mmHg,2025-10-12,Screening,1
SYN-2026-01,VS,SYN-2026-01-SITE-101-078,3,PULSE,Pulse Rate,85,beats/min,85,beats/min,2025-10-12,Screening,1
SYN-2026-01,VS,SYN-2026-01-SITE-101-078,4,WEIGHT,Weight,89.0,kg,89.0,kg,2025-10-12,Screening,1
SYN-2026-01,VS,SYN-2026-01-SITE-101-078,5,SYSBP,Systolic Blood Pressure,131,mmHg,131,mmHg,2025-10-26,Baseline / Day 1,2
SYN-2026-01,VS,SYN-2026-01-SITE-101-078,6,DIABP,Diastolic Blood Pressure,90,mmHg,90,mmHg,2025-10-26,Baseline / Day 1,2
SYN-2026-01,VS,SYN-2026-01-SITE-101-078,7,PULSE,Pulse Rate,73,beats/min,73,beats/min,2025-10-26,Baseline / Day 1,2
SYN-2026-01,VS,SYN-2026-01-SITE-101-078,8,TEMP,Temperature,37.7,C,37.7,C,2025-10-26,Baseline / Day 1,2
SYN-2026-01,VS,SYN-2026-01-SITE-101-078,9,WEIGHT,Weight,67.9,kg,67.9,kg,2025-10-26,Baseline / Day 1,2
SYN-2026-01,VS,SYN-2026-01-SITE-101-078,10,SYSBP,Systolic Blood Pressure,140,mmHg,140,mmHg,2025-11-25,Week 4,3
SYN-2026-01,VS,SYN-2026-01-SITE-101-078,11,DIABP,Diastolic Blood Pressure,74,mmHg,74,mmHg,2025-11-25,Week 4,3
SYN-2026-01,VS,SYN-2026-01-SITE-101-078,12,PULSE,Pulse Rate,67,beats/min,67,beats/min,2025-11-25,Week 4,3
SYN-2026-01,VS,SYN-2026-01-SITE-101-078,13,TEMP,Temperature,35.9,C,35.9,C,2025-11-25,Week 4,3
SYN-2026-01,VS,SYN-2026-01-SITE-101-078,14,WEIGHT,Weight,84.3,kg,84.3,kg,2025-11-25,Week 4,3
SYN-2026-01,VS,SYN-2026-01-SITE-101-078,15,SYSBP,Systolic Blood Pressure,103,mmHg,103,mmHg,2026-01-14,Week 12,4
SYN-2026-01,VS,SYN-2026-01-SITE-101-078,16,DIABP,Diastolic Blood Pressure,75,mmHg,75,mmHg,2026-01-14,Week 12,4
SYN-2026-01,VS,SYN-2026-01-SITE-101-078,17,PULSE,Pulse Rate,72,beats/min,72,beats/min,2026-01-14,Week 12,4
SYN-2026-01,VS,SYN-2026-01-SITE-101-078,18,WEIGHT,Weight,85.3,kg,85.3,kg,2026-01-14,Week 12,4
SYN-2026-01,VS,SYN-2026-01-SITE-101-078,19,SYSBP,Systolic Blood Pressure,113,mmHg,113,mmHg,2026-04-10,End of study,5
SYN-2026-01,VS,SYN-2026-01-SITE-101-078,20,DIABP,Diastolic Blood Pressure,78,mmHg,78,mmHg,2026-04-10,End of study,5
SYN-2026-01,VS,SYN-2026-01-SITE-101-078,21,PULSE,Pulse Rate,89,beats/min,89,beats/min,2026-04-10,End of study,5
SYN-2026-01,VS,SYN-2026-01-SITE-101-078,22,TEMP,Temperature,37.3,C,37.3,C,2026-04-10,End of study,5
SYN-2026-01,VS,SYN-2026-01-SITE-101-078,23,WEIGHT,Weight,65.5,kg,65.5,kg,2026-04-10,End of study,5
SYN-2026-01,VS,SYN-2026-01-SITE-101-082,1,SYSBP,Systolic Blood Pressure,132,mmHg,132,mmHg,2026-03-03,Screening,1
SYN-2026-01,VS,SYN-2026-01-SITE-101-082,2,DIABP,Diastolic Blood Pressure,87,mmHg,87,mmHg,2026-03-03,Screening,1
SYN-2026-01,VS,SYN-2026-01-SITE-101-082,3,PULSE,Pulse Rate,73,beats/min,73,beats/min,2026-03-03,Screening,1
SYN-2026-01,VS,SYN-2026-01-SITE-101-082,4,WEIGHT,Weight,44.6,kg,44.6,kg,2026-03-03,Screening,1
SYN-2026-01,VS,SYN-2026-01-SITE-101-082,5,SYSBP,Systolic Blood Pressure,120,mmHg,120,mmHg,2026-03-21,Baseline / Day 1,2
SYN-2026-01,VS,SYN-2026-01-SITE-101-082,6,DIABP,Diastolic Blood Pressure,83,mmHg,83,mmHg,2026-03-21,Baseline / Day 1,2
SYN-2026-01,VS,SYN-2026-01-SITE-101-082,7,PULSE,Pulse Rate,73,beats/min,73,beats/min,2026-03-21,Baseline / Day 1,2
SYN-2026-01,VS,SYN-2026-01-SITE-101-082,8,TEMP,Temperature,37.1,C,37.1,C,2026-03-21,Baseline / Day 1,2
SYN-2026-01,VS,SYN-2026-01-SITE-101-082,9,WEIGHT,Weight,86.3,kg,86.3,kg,2026-03-21,Baseline / Day 1,2
SYN-2026-01,VS,SYN-2026-01-SITE-101-082,10,SYSBP,Systolic Blood Pressure,135,mmHg,135,mmHg,2026-04-14,Week 4,3
SYN-2026-01,VS,SYN-2026-01-SITE-101-082,11,DIABP,Diastolic Blood Pressure,85,mmHg,85,mmHg,2026-04-14,Week 4,3
SYN-2026-01,VS,SYN-2026-01-SITE-101-082,12,PULSE,Pulse Rate,63,beats/min,63,beats/min,2026-04-14,Week 4,3
SYN-2026-01,VS,SYN-2026-01-SITE-101-082,13,WEIGHT,Weight,98.6,kg,98.6,kg,2026-04-14,Week 4,3
SYN-2026-01,VS,SYN-2026-01-SITE-101-082,14,SYSBP,Systolic Blood Pressure,146,mmHg,146,mmHg,2026-06-13,Week 12,4
SYN-2026-01,VS,SYN-2026-01-SITE-101-082,15,DIABP,Diastolic Blood Pressure,80,mmHg,80,mmHg,2026-06-13,Week 12,4
SYN-2026-01,VS,SYN-2026-01-SITE-101-082,16,PULSE,Pulse Rate,69,beats/min,69,beats/min,2026-06-13,Week 12,4
SYN-2026-01,VS,SYN-2026-01-SITE-101-082,17,TEMP,Temperature,36.2,C,36.2,C,2026-06-13,Week 12,4
SYN-2026-01,VS,SYN-2026-01-SITE-101-082,18,WEIGHT,Weight,46.7,kg,46.7,kg,2026-06-13,Week 12,4
SYN-2026-01,VS,SYN-2026-01-SITE-101-082,19,SYSBP,Systolic Blood Pressure,115,mmHg,115,mmHg,2026-09-01,End of study,5
SYN-2026-01,VS,SYN-2026-01-SITE-101-082,20,DIABP,Diastolic Blood Pressure,75,mmHg,75,mmHg,2026-09-01,End of study,5
SYN-2026-01,VS,SYN-2026-01-SITE-101-082,21,PULSE,Pulse Rate,73,beats/min,73,beats/min,2026-09-01,End of study,5
SYN-2026-01,VS,SYN-2026-01-SITE-101-082,22,TEMP,Temperature,36.3,C,36.3,C,2026-09-01,End of study,5
SYN-2026-01,VS,SYN-2026-01-SITE-101-082,23,WEIGHT,Weight,79.7,kg,79.7,kg,2026-09-01,End of study,5
SYN-2026-01,VS,SYN-2026-01-SITE-101-083,1,SYSBP,Systolic Blood Pressure,103,mmHg,103,mmHg,2026-03-19,Screening,1
SYN-2026-01,VS,SYN-2026-01-SITE-101-083,2,DIABP,Diastolic Blood Pressure,72,mmHg,72,mmHg,2026-03-19,Screening,1
SYN-2026-01,VS,SYN-2026-01-SITE-101-083,3,PULSE,Pulse Rate,71,beats/min,71,beats/min,2026-03-19,Screening,1
SYN-2026-01,VS,SYN-2026-01-SITE-101-083,4,TEMP,Temperature,37.0,C,37.0,C,2026-03-19,Screening,1
SYN-2026-01,VS,SYN-2026-01-SITE-101-083,5,WEIGHT,Weight,78.0,kg,78.0,kg,2026-03-19,Screening,1
SYN-2026-01,VS,SYN-2026-01-SITE-101-083,6,SYSBP,Systolic Blood Pressure,110,mmHg,110,mmHg,2026-04-09,Baseline / Day 1,2
SYN-2026-01,VS,SYN-2026-01-SITE-101-083,7,DIABP,Diastolic Blood Pressure,77,mmHg,77,mmHg,2026-04-09,Baseline / Day 1,2
SYN-2026-01,VS,SYN-2026-01-SITE-101-083,8,PULSE,Pulse Rate,84,beats/min,84,beats/min,2026-04-09,Baseline / Day 1,2
SYN-2026-01,VS,SYN-2026-01-SITE-101-083,9,TEMP,Temperature,37.4,C,37.4,C,2026-04-09,Baseline / Day 1,2
SYN-2026-01,VS,SYN-2026-01-SITE-101-083,10,WEIGHT,Weight,50.0,kg,50.0,kg,2026-04-09,Baseline / Day 1,2
SYN-2026-01,VS,SYN-2026-01-SITE-101-083,11,SYSBP,Systolic Blood Pressure,141,mmHg,141,mmHg,2026-05-08,Week 4,3
SYN-2026-01,VS,SYN-2026-01-SITE-101-083,12,DIABP,Diastolic Blood Pressure,80,mmHg,80,mmHg,2026-05-08,Week 4,3
SYN-2026-01,VS,SYN-2026-01-SITE-101-083,13,PULSE,Pulse Rate,60,beats/min,60,beats/min,2026-05-08,Week 4,3
SYN-2026-01,VS,SYN-2026-01-SITE-101-083,14,TEMP,Temperature,36.4,C,36.4,C,2026-05-08,Week 4,3
SYN-2026-01,VS,SYN-2026-01-SITE-101-083,15,WEIGHT,Weight,90.6,kg,90.6,kg,2026-05-08,Week 4,3
SYN-2026-01,VS,SYN-2026-01-SITE-101-083,16,SYSBP,Systolic Blood Pressure,113,mmHg,113,mmHg,2026-07-03,Week 12,4
SYN-2026-01,VS,SYN-2026-01-SITE-101-083,17,DIABP,Diastolic Blood Pressure,76,mmHg,76,mmHg,2026-07-03,Week 12,4
SYN-2026-01,VS,SYN-2026-01-SITE-101-083,18,PULSE,Pulse Rate,67,beats/min,67,beats/min,2026-07-03,Week 12,4
SYN-2026-01,VS,SYN-2026-01-SITE-101-083,19,TEMP,Temperature,36.3,C,36.3,C,2026-07-03,Week 12,4
SYN-2026-01,VS,SYN-2026-01-SITE-101-083,20,WEIGHT,Weight,69.0,kg,69.0,kg,2026-07-03,Week 12,4
SYN-2026-01,VS,SYN-2026-01-SITE-101-083,21,SYSBP,Systolic Blood Pressure,117,mmHg,117,mmHg,2026-09-25,End of study,5
SYN-2026-01,VS,SYN-2026-01-SITE-101-083,22,DIABP,Diastolic Blood Pressure,78,mmHg,78,mmHg,2026-09-25,End of study,5
SYN-2026-01,VS,SYN-2026-01-SITE-101-083,23,PULSE,Pulse Rate,78,beats/min,78,beats/min,2026-09-25,End of study,5
SYN-2026-01,VS,SYN-2026-01-SITE-101-083,24,TEMP,Temperature,36.5,C,36.5,C,2026-09-25,End of study,5
SYN-2026-01,VS,SYN-2026-01-SITE-101-083,25,WEIGHT,Weight,74.0,kg,74.0,kg,2026-09-25,End of study,5
SYN-2026-01,VS,SYN-2026-01-SITE-101-086,1,SYSBP,Systolic Blood Pressure,125,mmHg,125,mmHg,2025-10-13,Screening,1
SYN-2026-01,VS,SYN-2026-01-SITE-101-086,2,DIABP,Diastolic Blood Pressure,94,mmHg,94,mmHg,2025-10-13,Screening,1
SYN-2026-01,VS,SYN-2026-01-SITE-101-086,3,PULSE,Pulse Rate,88,beats/min,88,beats/min,2025-10-13,Screening,1
SYN-2026-01,VS,SYN-2026-01-SITE-101-086,4,WEIGHT,Weight,73.4,kg,73.4,kg,2025-10-13,Screening,1
SYN-2026-01,VS,SYN-2026-01-SITE-101-086,5,SYSBP,Systolic Blood Pressure,160,mmHg,160,mmHg,2025-10-30,Baseline / Day 1,2
SYN-2026-01,VS,SYN-2026-01-SITE-101-086,6,DIABP,Diastolic Blood Pressure,79,mmHg,79,mmHg,2025-10-30,Baseline / Day 1,2
SYN-2026-01,VS,SYN-2026-01-SITE-101-086,7,PULSE,Pulse Rate,93,beats/min,93,beats/min,2025-10-30,Baseline / Day 1,2
SYN-2026-01,VS,SYN-2026-01-SITE-101-086,8,TEMP,Temperature,37.1,C,37.1,C,2025-10-30,Baseline / Day 1,2
SYN-2026-01,VS,SYN-2026-01-SITE-101-086,9,WEIGHT,Weight,60.1,kg,60.1,kg,2025-10-30,Baseline / Day 1,2
SYN-2026-01,VS,SYN-2026-01-SITE-101-086,10,SYSBP,Systolic Blood Pressure,124,mmHg,124,mmHg,2025-11-25,Week 4,3
SYN-2026-01,VS,SYN-2026-01-SITE-101-086,11,DIABP,Diastolic Blood Pressure,79,mmHg,79,mmHg,2025-11-25,Week 4,3
SYN-2026-01,VS,SYN-2026-01-SITE-101-086,12,PULSE,Pulse Rate,102,beats/min,102,beats/min,2025-11-25,Week 4,3
SYN-2026-01,VS,SYN-2026-01-SITE-101-086,13,TEMP,Temperature,36.5,C,36.5,C,2025-11-25,Week 4,3
SYN-2026-01,VS,SYN-2026-01-SITE-101-086,14,WEIGHT,Weight,113.9,kg,113.9,kg,2025-11-25,Week 4,3
SYN-2026-01,VS,SYN-2026-01-SITE-101-086,15,SYSBP,Systolic Blood Pressure,145,mmHg,145,mmHg,2026-01-20,Week 12,4
SYN-2026-01,VS,SYN-2026-01-SITE-101-086,16,DIABP,Diastolic Blood Pressure,74,mmHg,74,mmHg,2026-01-20,Week 12,4
SYN-2026-01,VS,SYN-2026-01-SITE-101-086,17,PULSE,Pulse Rate,75,beats/min,75,beats/min,2026-01-20,Week 12,4
SYN-2026-01,VS,SYN-2026-01-SITE-101-086,18,WEIGHT,Weight,70.0,kg,70.0,kg,2026-01-20,Week 12,4
SYN-2026-01,VS,SYN-2026-01-SITE-101-086,19,SYSBP,Systolic Blood Pressure,132,mmHg,132,mmHg,2026-04-08,End of study,5
SYN-2026-01,VS,SYN-2026-01-SITE-101-086,20,DIABP,Diastolic Blood Pressure,68,mmHg,68,mmHg,2026-04-08,End of study,5
SYN-2026-01,VS,SYN-2026-01-SITE-101-086,21,PULSE,Pulse Rate,81,beats/min,81,beats/min,2026-04-08,End of study,5
SYN-2026-01,VS,SYN-2026-01-SITE-101-086,22,TEMP,Temperature,36.9,C,36.9,C,2026-04-08,End of study,5
SYN-2026-01,VS,SYN-2026-01-SITE-101-086,23,WEIGHT,Weight,68.0,kg,68.0,kg,2026-04-08,End of study,5
SYN-2026-01,VS,SYN-2026-01-SITE-101-087,1,SYSBP,Systolic Blood Pressure,129,mmHg,129,mmHg,2025-10-28,Screening,1
SYN-2026-01,VS,SYN-2026-01-SITE-101-087,2,DIABP,Diastolic Blood Pressure,100,mmHg,100,mmHg,2025-10-28,Screening,1
SYN-2026-01,VS,SYN-2026-01-SITE-101-087,3,PULSE,Pulse Rate,56,beats/min,56,beats/min,2025-10-28,Screening,1
SYN-2026-01,VS,SYN-2026-01-SITE-101-087,4,TEMP,Temperature,37.0,C,37.0,C,2025-10-28,Screening,1
SYN-2026-01,VS,SYN-2026-01-SITE-101-087,5,WEIGHT,Weight,84.8,kg,84.8,kg,2025-10-28,Screening,1
SYN-2026-01,VS,SYN-2026-01-SITE-101-087,6,SYSBP,Systolic Blood Pressure,130,mmHg,130,mmHg,2025-11-08,Baseline / Day 1,2
SYN-2026-01,VS,SYN-2026-01-SITE-101-087,7,DIABP,Diastolic Blood Pressure,78,mmHg,78,mmHg,2025-11-08,Baseline / Day 1,2
SYN-2026-01,VS,SYN-2026-01-SITE-101-087,8,PULSE,Pulse Rate,52,beats/min,52,beats/min,2025-11-08,Baseline / Day 1,2
SYN-2026-01,VS,SYN-2026-01-SITE-101-087,9,TEMP,Temperature,36.7,C,36.7,C,2025-11-08,Baseline / Day 1,2
SYN-2026-01,VS,SYN-2026-01-SITE-101-087,10,WEIGHT,Weight,54.6,kg,54.6,kg,2025-11-08,Baseline / Day 1,2
SYN-2026-01,VS,SYN-2026-01-SITE-101-087,11,SYSBP,Systolic Blood Pressure,120,mmHg,120,mmHg,2025-12-06,Week 4,3
SYN-2026-01,VS,SYN-2026-01-SITE-101-087,12,DIABP,Diastolic Blood Pressure,80,mmHg,80,mmHg,2025-12-06,Week 4,3
SYN-2026-01,VS,SYN-2026-01-SITE-101-087,13,PULSE,Pulse Rate,78,beats/min,78,beats/min,2025-12-06,Week 4,3
SYN-2026-01,VS,SYN-2026-01-SITE-101-087,14,TEMP,Temperature,36.9,C,36.9,C,2025-12-06,Week 4,3
SYN-2026-01,VS,SYN-2026-01-SITE-101-087,15,WEIGHT,Weight,96.3,kg,96.3,kg,2025-12-06,Week 4,3
SYN-2026-01,VS,SYN-2026-01-SITE-101-087,16,SYSBP,Systolic Blood Pressure,107,mmHg,107,mmHg,2026-01-31,Week 12,4
SYN-2026-01,VS,SYN-2026-01-SITE-101-087,17,DIABP,Diastolic Blood Pressure,67,mmHg,67,mmHg,2026-01-31,Week 12,4
SYN-2026-01,VS,SYN-2026-01-SITE-101-087,18,PULSE,Pulse Rate,77,beats/min,77,beats/min,2026-01-31,Week 12,4
SYN-2026-01,VS,SYN-2026-01-SITE-101-087,19,TEMP,Temperature,36.8,C,36.8,C,2026-01-31,Week 12,4
SYN-2026-01,VS,SYN-2026-01-SITE-101-087,20,WEIGHT,Weight,66.4,kg,66.4,kg,2026-01-31,Week 12,4
SYN-2026-01,VS,SYN-2026-01-SITE-101-087,21,SYSBP,Systolic Blood Pressure,135,mmHg,135,mmHg,2026-04-28,End of study,5
SYN-2026-01,VS,SYN-2026-01-SITE-101-087,22,DIABP,Diastolic Blood Pressure,79,mmHg,79,mmHg,2026-04-28,End of study,5
SYN-2026-01,VS,SYN-2026-01-SITE-101-087,23,PULSE,Pulse Rate,78,beats/min,78,beats/min,2026-04-28,End of study,5
SYN-2026-01,VS,SYN-2026-01-SITE-101-087,24,TEMP,Temperature,36.7,C,36.7,C,2026-04-28,End of study,5
SYN-2026-01,VS,SYN-2026-01-SITE-101-087,25,WEIGHT,Weight,96.8,kg,96.8,kg,2026-04-28,End of study,5
SYN-2026-01,VS,SYN-2026-01-SITE-101-095,1,SYSBP,Systolic Blood Pressure,138,mmHg,138,mmHg,2026-01-26,Screening,1
SYN-2026-01,VS,SYN-2026-01-SITE-101-095,2,DIABP,Diastolic Blood Pressure,70,mmHg,70,mmHg,2026-01-26,Screening,1
SYN-2026-01,VS,SYN-2026-01-SITE-101-095,3,PULSE,Pulse Rate,81,beats/min,81,beats/min,2026-01-26,Screening,1
SYN-2026-01,VS,SYN-2026-01-SITE-101-095,4,WEIGHT,Weight,79.0,kg,79.0,kg,2026-01-26,Screening,1
SYN-2026-01,VS,SYN-2026-01-SITE-101-095,5,SYSBP,Systolic Blood Pressure,115,mmHg,115,mmHg,2026-02-10,Baseline / Day 1,2
SYN-2026-01,VS,SYN-2026-01-SITE-101-095,6,DIABP,Diastolic Blood Pressure,85,mmHg,85,mmHg,2026-02-10,Baseline / Day 1,2
SYN-2026-01,VS,SYN-2026-01-SITE-101-095,7,PULSE,Pulse Rate,85,beats/min,85,beats/min,2026-02-10,Baseline / Day 1,2
SYN-2026-01,VS,SYN-2026-01-SITE-101-095,8,WEIGHT,Weight,80.1,kg,80.1,kg,2026-02-10,Baseline / Day 1,2
SYN-2026-01,VS,SYN-2026-01-SITE-101-095,9,SYSBP,Systolic Blood Pressure,105,mmHg,105,mmHg,2026-03-08,Week 4,3
SYN-2026-01,VS,SYN-2026-01-SITE-101-095,10,DIABP,Diastolic Blood Pressure,57,mmHg,57,mmHg,2026-03-08,Week 4,3
SYN-2026-01,VS,SYN-2026-01-SITE-101-095,11,PULSE,Pulse Rate,67,beats/min,67,beats/min,2026-03-08,Week 4,3
SYN-2026-01,VS,SYN-2026-01-SITE-101-095,12,TEMP,Temperature,37.0,C,37.0,C,2026-03-08,Week 4,3
SYN-2026-01,VS,SYN-2026-01-SITE-101-095,13,WEIGHT,Weight,61.6,kg,61.6,kg,2026-03-08,Week 4,3
SYN-2026-01,VS,SYN-2026-01-SITE-101-095,14,SYSBP,Systolic Blood Pressure,98,mmHg,98,mmHg,2026-04-30,Week 12,4
SYN-2026-01,VS,SYN-2026-01-SITE-101-095,15,DIABP,Diastolic Blood Pressure,72,mmHg,72,mmHg,2026-04-30,Week 12,4
SYN-2026-01,VS,SYN-2026-01-SITE-101-095,16,PULSE,Pulse Rate,54,beats/min,54,beats/min,2026-04-30,Week 12,4
SYN-2026-01,VS,SYN-2026-01-SITE-101-095,17,TEMP,Temperature,36.5,C,36.5,C,2026-04-30,Week 12,4
SYN-2026-01,VS,SYN-2026-01-SITE-101-095,18,WEIGHT,Weight,100.7,kg,100.7,kg,2026-04-30,Week 12,4
SYN-2026-01,VS,SYN-2026-01-SITE-101-095,19,SYSBP,Systolic Blood Pressure,127,mmHg,127,mmHg,2026-07-26,End of study,5
SYN-2026-01,VS,SYN-2026-01-SITE-101-095,20,DIABP,Diastolic Blood Pressure,70,mmHg,70,mmHg,2026-07-26,End of study,5
SYN-2026-01,VS,SYN-2026-01-SITE-101-095,21,PULSE,Pulse Rate,92,beats/min,92,beats/min,2026-07-26,End of study,5
SYN-2026-01,VS,SYN-2026-01-SITE-101-095,22,TEMP,Temperature,36.8,C,36.8,C,2026-07-26,End of study,5
SYN-2026-01,VS,SYN-2026-01-SITE-101-095,23,WEIGHT,Weight,107.6,kg,107.6,kg,2026-07-26,End of study,5
SYN-2026-01,VS,SYN-2026-01-SITE-101-107,1,SYSBP,Systolic Blood Pressure,111,mmHg,111,mmHg,2025-12-18,Screening,1
SYN-2026-01,VS,SYN-2026-01-SITE-101-107,2,DIABP,Diastolic Blood Pressure,66,mmHg,66,mmHg,2025-12-18,Screening,1
SYN-2026-01,VS,SYN-2026-01-SITE-101-107,3,PULSE,Pulse Rate,76,beats/min,76,beats/min,2025-12-18,Screening,1
SYN-2026-01,VS,SYN-2026-01-SITE-101-107,4,WEIGHT,Weight,78.0,kg,78.0,kg,2025-12-18,Screening,1
SYN-2026-01,VS,SYN-2026-01-SITE-101-107,5,SYSBP,Systolic Blood Pressure,140,mmHg,140,mmHg,2026-01-04,Baseline / Day 1,2
SYN-2026-01,VS,SYN-2026-01-SITE-101-107,6,DIABP,Diastolic Blood Pressure,56,mmHg,56,mmHg,2026-01-04,Baseline / Day 1,2
SYN-2026-01,VS,SYN-2026-01-SITE-101-107,7,PULSE,Pulse Rate,67,beats/min,67,beats/min,2026-01-04,Baseline / Day 1,2
SYN-2026-01,VS,SYN-2026-01-SITE-101-107,8,TEMP,Temperature,36.3,C,36.3,C,2026-01-04,Baseline / Day 1,2
SYN-2026-01,VS,SYN-2026-01-SITE-101-107,9,WEIGHT,Weight,57.3,kg,57.3,kg,2026-01-04,Baseline / Day 1,2
SYN-2026-01,VS,SYN-2026-01-SITE-101-107,10,SYSBP,Systolic Blood Pressure,134,mmHg,134,mmHg,2026-02-03,Week 4,3
SYN-2026-01,VS,SYN-2026-01-SITE-101-107,11,DIABP,Diastolic Blood Pressure,95,mmHg,95,mmHg,2026-02-03,Week 4,3
SYN-2026-01,VS,SYN-2026-01-SITE-101-107,12,PULSE,Pulse Rate,77,beats/min,77,beats/min,2026-02-03,Week 4,3
SYN-2026-01,VS,SYN-2026-01-SITE-101-107,13,WEIGHT,Weight,79.0,kg,79.0,kg,2026-02-03,Week 4,3
SYN-2026-01,VS,SYN-2026-01-SITE-102-003,1,SYSBP,Systolic Blood Pressure,128,mmHg,128,mmHg,2025-09-13,Screening,1
SYN-2026-01,VS,SYN-2026-01-SITE-102-003,2,DIABP,Diastolic Blood Pressure,61,mmHg,61,mmHg,2025-09-13,Screening,1
SYN-2026-01,VS,SYN-2026-01-SITE-102-003,3,PULSE,Pulse Rate,76,beats/min,76,beats/min,2025-09-13,Screening,1
SYN-2026-01,VS,SYN-2026-01-SITE-102-003,4,TEMP,Temperature,36.5,C,36.5,C,2025-09-13,Screening,1
SYN-2026-01,VS,SYN-2026-01-SITE-102-003,5,WEIGHT,Weight,83.8,kg,83.8,kg,2025-09-13,Screening,1
SYN-2026-01,VS,SYN-2026-01-SITE-102-003,6,SYSBP,Systolic Blood Pressure,132,mmHg,132,mmHg,2025-09-23,Baseline / Day 1,2
SYN-2026-01,VS,SYN-2026-01-SITE-102-003,7,DIABP,Diastolic Blood Pressure,73,mmHg,73,mmHg,2025-09-23,Baseline / Day 1,2
SYN-2026-01,VS,SYN-2026-01-SITE-102-003,8,PULSE,Pulse Rate,85,beats/min,85,beats/min,2025-09-23,Baseline / Day 1,2
SYN-2026-01,VS,SYN-2026-01-SITE-102-003,9,WEIGHT,Weight,53.6,kg,53.6,kg,2025-09-23,Baseline / Day 1,2
SYN-2026-01,VS,SYN-2026-01-SITE-102-003,10,SYSBP,Systolic Blood Pressure,145,mmHg,145,mmHg,2025-10-22,Week 4,3
SYN-2026-01,VS,SYN-2026-01-SITE-102-003,11,DIABP,Diastolic Blood Pressure,71,mmHg,71,mmHg,2025-10-22,Week 4,3
SYN-2026-01,VS,SYN-2026-01-SITE-102-003,12,PULSE,Pulse Rate,71,beats/min,71,beats/min,2025-10-22,Week 4,3
SYN-2026-01,VS,SYN-2026-01-SITE-102-003,13,TEMP,Temperature,36.5,C,36.5,C,2025-10-22,Week 4,3
SYN-2026-01,VS,SYN-2026-01-SITE-102-003,14,WEIGHT,Weight,72.9,kg,72.9,kg,2025-10-22,Week 4,3
SYN-2026-01,VS,SYN-2026-01-SITE-102-010,1,SYSBP,Systolic Blood Pressure,126,mmHg,126,mmHg,2025-10-21,Screening,1
SYN-2026-01,VS,SYN-2026-01-SITE-102-010,2,DIABP,Diastolic Blood Pressure,65,mmHg,65,mmHg,2025-10-21,Screening,1
SYN-2026-01,VS,SYN-2026-01-SITE-102-010,3,PULSE,Pulse Rate,83,beats/min,83,beats/min,2025-10-21,Screening,1
SYN-2026-01,VS,SYN-2026-01-SITE-102-010,4,TEMP,Temperature,36.7,C,36.7,C,2025-10-21,Screening,1
SYN-2026-01,VS,SYN-2026-01-SITE-102-010,5,WEIGHT,Weight,101.1,kg,101.1,kg,2025-10-21,Screening,1
SYN-2026-01,VS,SYN-2026-01-SITE-102-010,6,SYSBP,Systolic Blood Pressure,151,mmHg,151,mmHg,2025-11-11,Baseline / Day 1,2
SYN-2026-01,VS,SYN-2026-01-SITE-102-010,7,DIABP,Diastolic Blood Pressure,80,mmHg,80,mmHg,2025-11-11,Baseline / Day 1,2
SYN-2026-01,VS,SYN-2026-01-SITE-102-010,8,PULSE,Pulse Rate,58,beats/min,58,beats/min,2025-11-11,Baseline / Day 1,2
SYN-2026-01,VS,SYN-2026-01-SITE-102-010,9,TEMP,Temperature,37.2,C,37.2,C,2025-11-11,Baseline / Day 1,2
SYN-2026-01,VS,SYN-2026-01-SITE-102-010,10,WEIGHT,Weight,67.3,kg,67.3,kg,2025-11-11,Baseline / Day 1,2
SYN-2026-01,VS,SYN-2026-01-SITE-102-010,11,SYSBP,Systolic Blood Pressure,115,mmHg,115,mmHg,2025-12-08,Week 4,3
SYN-2026-01,VS,SYN-2026-01-SITE-102-010,12,DIABP,Diastolic Blood Pressure,63,mmHg,63,mmHg,2025-12-08,Week 4,3
SYN-2026-01,VS,SYN-2026-01-SITE-102-010,13,PULSE,Pulse Rate,57,beats/min,57,beats/min,2025-12-08,Week 4,3
SYN-2026-01,VS,SYN-2026-01-SITE-102-010,14,TEMP,Temperature,36.4,C,36.4,C,2025-12-08,Week 4,3
SYN-2026-01,VS,SYN-2026-01-SITE-102-010,15,WEIGHT,Weight,67.3,kg,67.3,kg,2025-12-08,Week 4,3
SYN-2026-01,VS,SYN-2026-01-SITE-102-023,1,SYSBP,Systolic Blood Pressure,121,mmHg,121,mmHg,2026-02-15,Screening,1
SYN-2026-01,VS,SYN-2026-01-SITE-102-023,2,DIABP,Diastolic Blood Pressure,96,mmHg,96,mmHg,2026-02-15,Screening,1
SYN-2026-01,VS,SYN-2026-01-SITE-102-023,3,PULSE,Pulse Rate,87,beats/min,87,beats/min,2026-02-15,Screening,1
SYN-2026-01,VS,SYN-2026-01-SITE-102-023,4,TEMP,Temperature,37.0,C,37.0,C,2026-02-15,Screening,1
SYN-2026-01,VS,SYN-2026-01-SITE-102-023,5,WEIGHT,Weight,73.0,kg,73.0,kg,2026-02-15,Screening,1
SYN-2026-01,VS,SYN-2026-01-SITE-102-023,6,SYSBP,Systolic Blood Pressure,134,mmHg,134,mmHg,2026-03-01,Baseline / Day 1,2
SYN-2026-01,VS,SYN-2026-01-SITE-102-023,7,DIABP,Diastolic Blood Pressure,65,mmHg,65,mmHg,2026-03-01,Baseline / Day 1,2
SYN-2026-01,VS,SYN-2026-01-SITE-102-023,8,PULSE,Pulse Rate,70,beats/min,70,beats/min,2026-03-01,Baseline / Day 1,2
SYN-2026-01,VS,SYN-2026-01-SITE-102-023,9,TEMP,Temperature,36.5,C,36.5,C,2026-03-01,Baseline / Day 1,2
SYN-2026-01,VS,SYN-2026-01-SITE-102-023,10,WEIGHT,Weight,66.6,kg,66.6,kg,2026-03-01,Baseline / Day 1,2
SYN-2026-01,VS,SYN-2026-01-SITE-102-023,11,SYSBP,Systolic Blood Pressure,125,mmHg,125,mmHg,2026-03-31,Week 4,3
SYN-2026-01,VS,SYN-2026-01-SITE-102-023,12,DIABP,Diastolic Blood Pressure,74,mmHg,74,mmHg,2026-03-31,Week 4,3
SYN-2026-01,VS,SYN-2026-01-SITE-102-023,13,PULSE,Pulse Rate,79,beats/min,79,beats/min,2026-03-31,Week 4,3
SYN-2026-01,VS,SYN-2026-01-SITE-102-023,14,TEMP,Temperature,36.5,C,36.5,C,2026-03-31,Week 4,3
SYN-2026-01,VS,SYN-2026-01-SITE-102-023,15,WEIGHT,Weight,58.6,kg,58.6,kg,2026-03-31,Week 4,3
SYN-2026-01,VS,SYN-2026-01-SITE-102-023,16,SYSBP,Systolic Blood Pressure,122,mmHg,122,mmHg,2026-05-24,Week 12,4
SYN-2026-01,VS,SYN-2026-01-SITE-102-023,17,DIABP,Diastolic Blood Pressure,91,mmHg,91,mmHg,2026-05-24,Week 12,4
SYN-2026-01,VS,SYN-2026-01-SITE-102-023,18,PULSE,Pulse Rate,73,beats/min,73,beats/min,2026-05-24,Week 12,4
SYN-2026-01,VS,SYN-2026-01-SITE-102-023,19,TEMP,Temperature,37.1,C,37.1,C,2026-05-24,Week 12,4
SYN-2026-01,VS,SYN-2026-01-SITE-102-023,20,WEIGHT,Weight,57.6,kg,57.6,kg,2026-05-24,Week 12,4
SYN-2026-01,VS,SYN-2026-01-SITE-102-023,21,SYSBP,Systolic Blood Pressure,118,mmHg,118,mmHg,2026-08-12,End of study,5
SYN-2026-01,VS,SYN-2026-01-SITE-102-023,22,DIABP,Diastolic Blood Pressure,79,mmHg,79,mmHg,2026-08-12,End of study,5
SYN-2026-01,VS,SYN-2026-01-SITE-102-023,23,PULSE,Pulse Rate,70,beats/min,70,beats/min,2026-08-12,End of study,5
SYN-2026-01,VS,SYN-2026-01-SITE-102-023,24,TEMP,Temperature,36.8,C,36.8,C,2026-08-12,End of study,5
SYN-2026-01,VS,SYN-2026-01-SITE-102-023,25,WEIGHT,Weight,79.3,kg,79.3,kg,2026-08-12,End of study,5
SYN-2026-01,VS,SYN-2026-01-SITE-102-024,1,SYSBP,Systolic Blood Pressure,133,mmHg,133,mmHg,2025-10-07,Screening,1
SYN-2026-01,VS,SYN-2026-01-SITE-102-024,2,DIABP,Diastolic Blood Pressure,79,mmHg,79,mmHg,2025-10-07,Screening,1
SYN-2026-01,VS,SYN-2026-01-SITE-102-024,3,PULSE,Pulse Rate,70,beats/min,70,beats/min,2025-10-07,Screening,1
SYN-2026-01,VS,SYN-2026-01-SITE-102-024,4,TEMP,Temperature,37.5,C,37.5,C,2025-10-07,Screening,1
SYN-2026-01,VS,SYN-2026-01-SITE-102-024,5,WEIGHT,Weight,100.1,kg,100.1,kg,2025-10-07,Screening,1
SYN-2026-01,VS,SYN-2026-01-SITE-102-024,6,SYSBP,Systolic Blood Pressure,115,mmHg,115,mmHg,2025-10-21,Baseline / Day 1,2
SYN-2026-01,VS,SYN-2026-01-SITE-102-024,7,DIABP,Diastolic Blood Pressure,68,mmHg,68,mmHg,2025-10-21,Baseline / Day 1,2
SYN-2026-01,VS,SYN-2026-01-SITE-102-024,8,PULSE,Pulse Rate,69,beats/min,69,beats/min,2025-10-21,Baseline / Day 1,2
SYN-2026-01,VS,SYN-2026-01-SITE-102-024,9,TEMP,Temperature,37.0,C,37.0,C,2025-10-21,Baseline / Day 1,2
SYN-2026-01,VS,SYN-2026-01-SITE-102-024,10,WEIGHT,Weight,88.8,kg,88.8,kg,2025-10-21,Baseline / Day 1,2
SYN-2026-01,VS,SYN-2026-01-SITE-102-024,11,SYSBP,Systolic Blood Pressure,126,mmHg,126,mmHg,2025-11-18,Week 4,3
SYN-2026-01,VS,SYN-2026-01-SITE-102-024,12,DIABP,Diastolic Blood Pressure,72,mmHg,72,mmHg,2025-11-18,Week 4,3
SYN-2026-01,VS,SYN-2026-01-SITE-102-024,13,PULSE,Pulse Rate,61,beats/min,61,beats/min,2025-11-18,Week 4,3
SYN-2026-01,VS,SYN-2026-01-SITE-102-024,14,TEMP,Temperature,37.3,C,37.3,C,2025-11-18,Week 4,3
SYN-2026-01,VS,SYN-2026-01-SITE-102-024,15,WEIGHT,Weight,111.5,kg,111.5,kg,2025-11-18,Week 4,3
SYN-2026-01,VS,SYN-2026-01-SITE-102-024,16,SYSBP,Systolic Blood Pressure,133,mmHg,133,mmHg,2026-01-22,Week 12,4
SYN-2026-01,VS,SYN-2026-01-SITE-102-024,17,DIABP,Diastolic Blood Pressure,71,mmHg,71,mmHg,2026-01-22,Week 12,4
SYN-2026-01,VS,SYN-2026-01-SITE-102-024,18,PULSE,Pulse Rate,61,beats/min,61,beats/min,2026-01-22,Week 12,4
SYN-2026-01,VS,SYN-2026-01-SITE-102-024,19,TEMP,Temperature,37.0,C,37.0,C,2026-01-22,Week 12,4
SYN-2026-01,VS,SYN-2026-01-SITE-102-024,20,WEIGHT,Weight,69.0,kg,69.0,kg,2026-01-22,Week 12,4
SYN-2026-01,VS,SYN-2026-01-SITE-102-024,21,SYSBP,Systolic Blood Pressure,143,mmHg,143,mmHg,2026-04-07,End of study,5
SYN-2026-01,VS,SYN-2026-01-SITE-102-024,22,DIABP,Diastolic Blood Pressure,62,mmHg,62,mmHg,2026-04-07,End of study,5
SYN-2026-01,VS,SYN-2026-01-SITE-102-024,23,PULSE,Pulse Rate,77,beats/min,77,beats/min,2026-04-07,End of study,5
SYN-2026-01,VS,SYN-2026-01-SITE-102-024,24,TEMP,Temperature,36.8,C,36.8,C,2026-04-07,End of study,5
SYN-2026-01,VS,SYN-2026-01-SITE-102-024,25,WEIGHT,Weight,47.8,kg,47.8,kg,2026-04-07,End of study,5
SYN-2026-01,VS,SYN-2026-01-SITE-102-025,1,SYSBP,Systolic Blood Pressure,136,mmHg,136,mmHg,2025-11-22,Screening,1
SYN-2026-01,VS,SYN-2026-01-SITE-102-025,2,DIABP,Diastolic Blood Pressure,68,mmHg,68,mmHg,2025-11-22,Screening,1
SYN-2026-01,VS,SYN-2026-01-SITE-102-025,3,PULSE,Pulse Rate,83,beats/min,83,beats/min,2025-11-22,Screening,1
SYN-2026-01,VS,SYN-2026-01-SITE-102-025,4,TEMP,Temperature,37.3,C,37.3,C,2025-11-22,Screening,1
SYN-2026-01,VS,SYN-2026-01-SITE-102-025,5,WEIGHT,Weight,90.8,kg,90.8,kg,2025-11-22,Screening,1
SYN-2026-01,VS,SYN-2026-01-SITE-102-025,6,SYSBP,Systolic Blood Pressure,107,mmHg,107,mmHg,2025-12-01,Baseline / Day 1,2
SYN-2026-01,VS,SYN-2026-01-SITE-102-025,7,DIABP,Diastolic Blood Pressure,79,mmHg,79,mmHg,2025-12-01,Baseline / Day 1,2
SYN-2026-01,VS,SYN-2026-01-SITE-102-025,8,PULSE,Pulse Rate,74,beats/min,74,beats/min,2025-12-01,Baseline / Day 1,2
SYN-2026-01,VS,SYN-2026-01-SITE-102-025,9,WEIGHT,Weight,81.1,kg,81.1,kg,2025-12-01,Baseline / Day 1,2
SYN-2026-01,VS,SYN-2026-01-SITE-102-025,10,SYSBP,Systolic Blood Pressure,106,mmHg,106,mmHg,2025-12-25,Week 4,3
SYN-2026-01,VS,SYN-2026-01-SITE-102-025,11,DIABP,Diastolic Blood Pressure,87,mmHg,87,mmHg,2025-12-25,Week 4,3
SYN-2026-01,VS,SYN-2026-01-SITE-102-025,12,PULSE,Pulse Rate,75,beats/min,75,beats/min,2025-12-25,Week 4,3
SYN-2026-01,VS,SYN-2026-01-SITE-102-025,13,TEMP,Temperature,36.7,C,36.7,C,2025-12-25,Week 4,3
SYN-2026-01,VS,SYN-2026-01-SITE-102-025,14,WEIGHT,Weight,76.1,kg,76.1,kg,2025-12-25,Week 4,3
SYN-2026-01,VS,SYN-2026-01-SITE-102-025,15,SYSBP,Systolic Blood Pressure,134,mmHg,134,mmHg,2026-02-22,Week 12,4
SYN-2026-01,VS,SYN-2026-01-SITE-102-025,16,DIABP,Diastolic Blood Pressure,85,mmHg,85,mmHg,2026-02-22,Week 12,4
SYN-2026-01,VS,SYN-2026-01-SITE-102-025,17,PULSE,Pulse Rate,81,beats/min,81,beats/min,2026-02-22,Week 12,4
SYN-2026-01,VS,SYN-2026-01-SITE-102-025,18,TEMP,Temperature,36.9,C,36.9,C,2026-02-22,Week 12,4
SYN-2026-01,VS,SYN-2026-01-SITE-102-025,19,WEIGHT,Weight,82.8,kg,82.8,kg,2026-02-22,Week 12,4
SYN-2026-01,VS,SYN-2026-01-SITE-102-025,20,SYSBP,Systolic Blood Pressure,132,mmHg,132,mmHg,2026-05-22,End of study,5
SYN-2026-01,VS,SYN-2026-01-SITE-102-025,21,DIABP,Diastolic Blood Pressure,81,mmHg,81,mmHg,2026-05-22,End of study,5
SYN-2026-01,VS,SYN-2026-01-SITE-102-025,22,PULSE,Pulse Rate,75,beats/min,75,beats/min,2026-05-22,End of study,5
SYN-2026-01,VS,SYN-2026-01-SITE-102-025,23,TEMP,Temperature,36.5,C,36.5,C,2026-05-22,End of study,5
SYN-2026-01,VS,SYN-2026-01-SITE-102-025,24,WEIGHT,Weight,68.3,kg,68.3,kg,2026-05-22,End of study,5
SYN-2026-01,VS,SYN-2026-01-SITE-102-026,1,SYSBP,Systolic Blood Pressure,114,mmHg,114,mmHg,2025-09-28,Screening,1
SYN-2026-01,VS,SYN-2026-01-SITE-102-026,2,DIABP,Diastolic Blood Pressure,79,mmHg,79,mmHg,2025-09-28,Screening,1
SYN-2026-01,VS,SYN-2026-01-SITE-102-026,3,PULSE,Pulse Rate,94,beats/min,94,beats/min,2025-09-28,Screening,1
SYN-2026-01,VS,SYN-2026-01-SITE-102-026,4,WEIGHT,Weight,80.5,kg,80.5,kg,2025-09-28,Screening,1
SYN-2026-01,VS,SYN-2026-01-SITE-102-026,5,SYSBP,Systolic Blood Pressure,118,mmHg,118,mmHg,2025-10-20,Baseline / Day 1,2
SYN-2026-01,VS,SYN-2026-01-SITE-102-026,6,DIABP,Diastolic Blood Pressure,81,mmHg,81,mmHg,2025-10-20,Baseline / Day 1,2
SYN-2026-01,VS,SYN-2026-01-SITE-102-026,7,PULSE,Pulse Rate,63,beats/min,63,beats/min,2025-10-20,Baseline / Day 1,2
SYN-2026-01,VS,SYN-2026-01-SITE-102-026,8,TEMP,Temperature,37.4,C,37.4,C,2025-10-20,Baseline / Day 1,2
SYN-2026-01,VS,SYN-2026-01-SITE-102-026,9,WEIGHT,Weight,84.5,kg,84.5,kg,2025-10-20,Baseline / Day 1,2
SYN-2026-01,VS,SYN-2026-01-SITE-102-026,10,SYSBP,Systolic Blood Pressure,139,mmHg,139,mmHg,2025-11-24,Week 4,3
SYN-2026-01,VS,SYN-2026-01-SITE-102-026,11,DIABP,Diastolic Blood Pressure,87,mmHg,87,mmHg,2025-11-24,Week 4,3
SYN-2026-01,VS,SYN-2026-01-SITE-102-026,12,PULSE,Pulse Rate,59,beats/min,59,beats/min,2025-11-24,Week 4,3
SYN-2026-01,VS,SYN-2026-01-SITE-102-026,13,TEMP,Temperature,37.0,C,37.0,C,2025-11-24,Week 4,3
SYN-2026-01,VS,SYN-2026-01-SITE-102-026,14,WEIGHT,Weight,104.8,kg,104.8,kg,2025-11-24,Week 4,3
SYN-2026-01,VS,SYN-2026-01-SITE-102-026,15,SYSBP,Systolic Blood Pressure,112,mmHg,112,mmHg,2026-01-10,Week 12,4
SYN-2026-01,VS,SYN-2026-01-SITE-102-026,16,DIABP,Diastolic Blood Pressure,86,mmHg,86,mmHg,2026-01-10,Week 12,4
SYN-2026-01,VS,SYN-2026-01-SITE-102-026,17,PULSE,Pulse Rate,89,beats/min,89,beats/min,2026-01-10,Week 12,4
SYN-2026-01,VS,SYN-2026-01-SITE-102-026,18,TEMP,Temperature,36.5,C,36.5,C,2026-01-10,Week 12,4
SYN-2026-01,VS,SYN-2026-01-SITE-102-026,19,WEIGHT,Weight,66.8,kg,66.8,kg,2026-01-10,Week 12,4
SYN-2026-01,VS,SYN-2026-01-SITE-102-026,20,SYSBP,Systolic Blood Pressure,129,mmHg,129,mmHg,2026-03-30,End of study,5
SYN-2026-01,VS,SYN-2026-01-SITE-102-026,21,DIABP,Diastolic Blood Pressure,86,mmHg,86,mmHg,2026-03-30,End of study,5
SYN-2026-01,VS,SYN-2026-01-SITE-102-026,22,PULSE,Pulse Rate,72,beats/min,72,beats/min,2026-03-30,End of study,5
SYN-2026-01,VS,SYN-2026-01-SITE-102-026,23,TEMP,Temperature,36.7,C,36.7,C,2026-03-30,End of study,5
SYN-2026-01,VS,SYN-2026-01-SITE-102-026,24,WEIGHT,Weight,61.4,kg,61.4,kg,2026-03-30,End of study,5
SYN-2026-01,VS,SYN-2026-01-SITE-102-027,1,SYSBP,Systolic Blood Pressure,136,mmHg,136,mmHg,2025-11-11,Screening,1
SYN-2026-01,VS,SYN-2026-01-SITE-102-027,2,DIABP,Diastolic Blood Pressure,72,mmHg,72,mmHg,2025-11-11,Screening,1
SYN-2026-01,VS,SYN-2026-01-SITE-102-027,3,PULSE,Pulse Rate,78,beats/min,78,beats/min,2025-11-11,Screening,1
SYN-2026-01,VS,SYN-2026-01-SITE-102-027,4,TEMP,Temperature,36.5,C,36.5,C,2025-11-11,Screening,1
SYN-2026-01,VS,SYN-2026-01-SITE-102-027,5,WEIGHT,Weight,60.1,kg,60.1,kg,2025-11-11,Screening,1
SYN-2026-01,VS,SYN-2026-01-SITE-102-027,6,SYSBP,Systolic Blood Pressure,135,mmHg,135,mmHg,2025-11-23,Baseline / Day 1,2
SYN-2026-01,VS,SYN-2026-01-SITE-102-027,7,DIABP,Diastolic Blood Pressure,89,mmHg,89,mmHg,2025-11-23,Baseline / Day 1,2
SYN-2026-01,VS,SYN-2026-01-SITE-102-027,8,PULSE,Pulse Rate,54,beats/min,54,beats/min,2025-11-23,Baseline / Day 1,2
SYN-2026-01,VS,SYN-2026-01-SITE-102-027,9,WEIGHT,Weight,95.1,kg,95.1,kg,2025-11-23,Baseline / Day 1,2
SYN-2026-01,VS,SYN-2026-01-SITE-102-027,10,SYSBP,Systolic Blood Pressure,131,mmHg,131,mmHg,2025-12-23,Week 4,3
SYN-2026-01,VS,SYN-2026-01-SITE-102-027,11,DIABP,Diastolic Blood Pressure,84,mmHg,84,mmHg,2025-12-23,Week 4,3
SYN-2026-01,VS,SYN-2026-01-SITE-102-027,12,PULSE,Pulse Rate,77,beats/min,77,beats/min,2025-12-23,Week 4,3
SYN-2026-01,VS,SYN-2026-01-SITE-102-027,13,TEMP,Temperature,36.3,C,36.3,C,2025-12-23,Week 4,3
SYN-2026-01,VS,SYN-2026-01-SITE-102-027,14,WEIGHT,Weight,85.5,kg,85.5,kg,2025-12-23,Week 4,3
SYN-2026-01,VS,SYN-2026-01-SITE-102-027,15,SYSBP,Systolic Blood Pressure,139,mmHg,139,mmHg,2026-02-17,Week 12,4
SYN-2026-01,VS,SYN-2026-01-SITE-102-027,16,DIABP,Diastolic Blood Pressure,76,mmHg,76,mmHg,2026-02-17,Week 12,4
SYN-2026-01,VS,SYN-2026-01-SITE-102-027,17,PULSE,Pulse Rate,69,beats/min,69,beats/min,2026-02-17,Week 12,4
SYN-2026-01,VS,SYN-2026-01-SITE-102-027,18,TEMP,Temperature,36.6,C,36.6,C,2026-02-17,Week 12,4
SYN-2026-01,VS,SYN-2026-01-SITE-102-027,19,WEIGHT,Weight,67.9,kg,67.9,kg,2026-02-17,Week 12,4
SYN-2026-01,VS,SYN-2026-01-SITE-102-028,1,SYSBP,Systolic Blood Pressure,125,mmHg,125,mmHg,2026-03-02,Screening,1
SYN-2026-01,VS,SYN-2026-01-SITE-102-028,2,DIABP,Diastolic Blood Pressure,75,mmHg,75,mmHg,2026-03-02,Screening,1
SYN-2026-01,VS,SYN-2026-01-SITE-102-028,3,PULSE,Pulse Rate,70,beats/min,70,beats/min,2026-03-02,Screening,1
SYN-2026-01,VS,SYN-2026-01-SITE-102-028,4,TEMP,Temperature,36.4,C,36.4,C,2026-03-02,Screening,1
SYN-2026-01,VS,SYN-2026-01-SITE-102-028,5,WEIGHT,Weight,95.6,kg,95.6,kg,2026-03-02,Screening,1
SYN-2026-01,VS,SYN-2026-01-SITE-102-028,6,SYSBP,Systolic Blood Pressure,145,mmHg,145,mmHg,2026-03-11,Baseline / Day 1,2
SYN-2026-01,VS,SYN-2026-01-SITE-102-028,7,DIABP,Diastolic Blood Pressure,78,mmHg,78,mmHg,2026-03-11,Baseline / Day 1,2
SYN-2026-01,VS,SYN-2026-01-SITE-102-028,8,PULSE,Pulse Rate,58,beats/min,58,beats/min,2026-03-11,Baseline / Day 1,2
SYN-2026-01,VS,SYN-2026-01-SITE-102-028,9,TEMP,Temperature,37.1,C,37.1,C,2026-03-11,Baseline / Day 1,2
SYN-2026-01,VS,SYN-2026-01-SITE-102-028,10,WEIGHT,Weight,44.3,kg,44.3,kg,2026-03-11,Baseline / Day 1,2
SYN-2026-01,VS,SYN-2026-01-SITE-102-028,11,SYSBP,Systolic Blood Pressure,111,mmHg,111,mmHg,2026-04-09,Week 4,3
SYN-2026-01,VS,SYN-2026-01-SITE-102-028,12,DIABP,Diastolic Blood Pressure,96,mmHg,96,mmHg,2026-04-09,Week 4,3
SYN-2026-01,VS,SYN-2026-01-SITE-102-028,13,PULSE,Pulse Rate,76,beats/min,76,beats/min,2026-04-09,Week 4,3
SYN-2026-01,VS,SYN-2026-01-SITE-102-028,14,TEMP,Temperature,36.5,C,36.5,C,2026-04-09,Week 4,3
SYN-2026-01,VS,SYN-2026-01-SITE-102-028,15,WEIGHT,Weight,71.2,kg,71.2,kg,2026-04-09,Week 4,3
SYN-2026-01,VS,SYN-2026-01-SITE-102-028,16,SYSBP,Systolic Blood Pressure,119,mmHg,119,mmHg,2026-05-31,Week 12,4
SYN-2026-01,VS,SYN-2026-01-SITE-102-028,17,DIABP,Diastolic Blood Pressure,85,mmHg,85,mmHg,2026-05-31,Week 12,4
SYN-2026-01,VS,SYN-2026-01-SITE-102-028,18,PULSE,Pulse Rate,73,beats/min,73,beats/min,2026-05-31,Week 12,4
SYN-2026-01,VS,SYN-2026-01-SITE-102-028,19,TEMP,Temperature,37.1,C,37.1,C,2026-05-31,Week 12,4
SYN-2026-01,VS,SYN-2026-01-SITE-102-028,20,WEIGHT,Weight,87.6,kg,87.6,kg,2026-05-31,Week 12,4
SYN-2026-01,VS,SYN-2026-01-SITE-102-028,21,SYSBP,Systolic Blood Pressure,134,mmHg,134,mmHg,2026-08-19,End of study,5
SYN-2026-01,VS,SYN-2026-01-SITE-102-028,22,DIABP,Diastolic Blood Pressure,91,mmHg,91,mmHg,2026-08-19,End of study,5
SYN-2026-01,VS,SYN-2026-01-SITE-102-028,23,PULSE,Pulse Rate,73,beats/min,73,beats/min,2026-08-19,End of study,5
SYN-2026-01,VS,SYN-2026-01-SITE-102-028,24,TEMP,Temperature,35.7,C,35.7,C,2026-08-19,End of study,5
SYN-2026-01,VS,SYN-2026-01-SITE-102-028,25,WEIGHT,Weight,87.8,kg,87.8,kg,2026-08-19,End of study,5
SYN-2026-01,VS,SYN-2026-01-SITE-102-033,1,SYSBP,Systolic Blood Pressure,123,mmHg,123,mmHg,2025-12-30,Screening,1
SYN-2026-01,VS,SYN-2026-01-SITE-102-033,2,DIABP,Diastolic Blood Pressure,71,mmHg,71,mmHg,2025-12-30,Screening,1
SYN-2026-01,VS,SYN-2026-01-SITE-102-033,3,PULSE,Pulse Rate,65,beats/min,65,beats/min,2025-12-30,Screening,1
SYN-2026-01,VS,SYN-2026-01-SITE-102-033,4,TEMP,Temperature,36.9,C,36.9,C,2025-12-30,Screening,1
SYN-2026-01,VS,SYN-2026-01-SITE-102-033,5,WEIGHT,Weight,84.9,kg,84.9,kg,2025-12-30,Screening,1
SYN-2026-01,VS,SYN-2026-01-SITE-102-033,6,SYSBP,Systolic Blood Pressure,114,mmHg,114,mmHg,2026-01-17,Baseline / Day 1,2
SYN-2026-01,VS,SYN-2026-01-SITE-102-033,7,DIABP,Diastolic Blood Pressure,61,mmHg,61,mmHg,2026-01-17,Baseline / Day 1,2
SYN-2026-01,VS,SYN-2026-01-SITE-102-033,8,PULSE,Pulse Rate,96,beats/min,96,beats/min,2026-01-17,Baseline / Day 1,2
SYN-2026-01,VS,SYN-2026-01-SITE-102-033,9,WEIGHT,Weight,79.8,kg,79.8,kg,2026-01-17,Baseline / Day 1,2
SYN-2026-01,VS,SYN-2026-01-SITE-102-033,10,SYSBP,Systolic Blood Pressure,119,mmHg,119,mmHg,2026-02-10,Week 4,3
SYN-2026-01,VS,SYN-2026-01-SITE-102-033,11,DIABP,Diastolic Blood Pressure,76,mmHg,76,mmHg,2026-02-10,Week 4,3
SYN-2026-01,VS,SYN-2026-01-SITE-102-033,12,PULSE,Pulse Rate,63,beats/min,63,beats/min,2026-02-10,Week 4,3
SYN-2026-01,VS,SYN-2026-01-SITE-102-033,13,TEMP,Temperature,36.6,C,36.6,C,2026-02-10,Week 4,3
SYN-2026-01,VS,SYN-2026-01-SITE-102-033,14,WEIGHT,Weight,64.8,kg,64.8,kg,2026-02-10,Week 4,3
SYN-2026-01,VS,SYN-2026-01-SITE-102-033,15,SYSBP,Systolic Blood Pressure,120,mmHg,120,mmHg,2026-04-13,Week 12,4
SYN-2026-01,VS,SYN-2026-01-SITE-102-033,16,DIABP,Diastolic Blood Pressure,62,mmHg,62,mmHg,2026-04-13,Week 12,4
SYN-2026-01,VS,SYN-2026-01-SITE-102-033,17,PULSE,Pulse Rate,61,beats/min,61,beats/min,2026-04-13,Week 12,4
SYN-2026-01,VS,SYN-2026-01-SITE-102-033,18,TEMP,Temperature,36.7,C,36.7,C,2026-04-13,Week 12,4
SYN-2026-01,VS,SYN-2026-01-SITE-102-033,19,WEIGHT,Weight,60.3,kg,60.3,kg,2026-04-13,Week 12,4
SYN-2026-01,VS,SYN-2026-01-SITE-102-033,20,SYSBP,Systolic Blood Pressure,131,mmHg,131,mmHg,2026-07-06,End of study,5
SYN-2026-01,VS,SYN-2026-01-SITE-102-033,21,DIABP,Diastolic Blood Pressure,80,mmHg,80,mmHg,2026-07-06,End of study,5
SYN-2026-01,VS,SYN-2026-01-SITE-102-033,22,PULSE,Pulse Rate,63,beats/min,63,beats/min,2026-07-06,End of study,5
SYN-2026-01,VS,SYN-2026-01-SITE-102-033,23,TEMP,Temperature,36.9,C,36.9,C,2026-07-06,End of study,5
SYN-2026-01,VS,SYN-2026-01-SITE-102-033,24,WEIGHT,Weight,93.0,kg,93.0,kg,2026-07-06,End of study,5
SYN-2026-01,VS,SYN-2026-01-SITE-102-046,1,SYSBP,Systolic Blood Pressure,138,mmHg,138,mmHg,2025-12-13,Screening,1
SYN-2026-01,VS,SYN-2026-01-SITE-102-046,2,DIABP,Diastolic Blood Pressure,80,mmHg,80,mmHg,2025-12-13,Screening,1
SYN-2026-01,VS,SYN-2026-01-SITE-102-046,3,PULSE,Pulse Rate,71,beats/min,71,beats/min,2025-12-13,Screening,1
SYN-2026-01,VS,SYN-2026-01-SITE-102-046,4,TEMP,Temperature,36.5,C,36.5,C,2025-12-13,Screening,1
SYN-2026-01,VS,SYN-2026-01-SITE-102-046,5,WEIGHT,Weight,75.3,kg,75.3,kg,2025-12-13,Screening,1
SYN-2026-01,VS,SYN-2026-01-SITE-102-046,6,SYSBP,Systolic Blood Pressure,121,mmHg,121,mmHg,2025-12-23,Baseline / Day 1,2
SYN-2026-01,VS,SYN-2026-01-SITE-102-046,7,DIABP,Diastolic Blood Pressure,63,mmHg,63,mmHg,2025-12-23,Baseline / Day 1,2
SYN-2026-01,VS,SYN-2026-01-SITE-102-046,8,PULSE,Pulse Rate,71,beats/min,71,beats/min,2025-12-23,Baseline / Day 1,2
SYN-2026-01,VS,SYN-2026-01-SITE-102-046,9,TEMP,Temperature,36.4,C,36.4,C,2025-12-23,Baseline / Day 1,2
SYN-2026-01,VS,SYN-2026-01-SITE-102-046,10,WEIGHT,Weight,97.7,kg,97.7,kg,2025-12-23,Baseline / Day 1,2
SYN-2026-01,VS,SYN-2026-01-SITE-102-046,11,SYSBP,Systolic Blood Pressure,138,mmHg,138,mmHg,2026-01-21,Week 4,3
SYN-2026-01,VS,SYN-2026-01-SITE-102-046,12,DIABP,Diastolic Blood Pressure,59,mmHg,59,mmHg,2026-01-21,Week 4,3
SYN-2026-01,VS,SYN-2026-01-SITE-102-046,13,PULSE,Pulse Rate,62,beats/min,62,beats/min,2026-01-21,Week 4,3
SYN-2026-01,VS,SYN-2026-01-SITE-102-046,14,TEMP,Temperature,37.0,C,37.0,C,2026-01-21,Week 4,3
SYN-2026-01,VS,SYN-2026-01-SITE-102-046,15,WEIGHT,Weight,64.2,kg,64.2,kg,2026-01-21,Week 4,3
SYN-2026-01,VS,SYN-2026-01-SITE-102-046,16,SYSBP,Systolic Blood Pressure,147,mmHg,147,mmHg,2026-03-12,Week 12,4
SYN-2026-01,VS,SYN-2026-01-SITE-102-046,17,DIABP,Diastolic Blood Pressure,88,mmHg,88,mmHg,2026-03-12,Week 12,4
SYN-2026-01,VS,SYN-2026-01-SITE-102-046,18,PULSE,Pulse Rate,82,beats/min,82,beats/min,2026-03-12,Week 12,4
SYN-2026-01,VS,SYN-2026-01-SITE-102-046,19,TEMP,Temperature,36.4,C,36.4,C,2026-03-12,Week 12,4
SYN-2026-01,VS,SYN-2026-01-SITE-102-046,20,WEIGHT,Weight,96.8,kg,96.8,kg,2026-03-12,Week 12,4
SYN-2026-01,VS,SYN-2026-01-SITE-102-046,21,SYSBP,Systolic Blood Pressure,145,mmHg,145,mmHg,2026-06-04,End of study,5
SYN-2026-01,VS,SYN-2026-01-SITE-102-046,22,DIABP,Diastolic Blood Pressure,95,mmHg,95,mmHg,2026-06-04,End of study,5
SYN-2026-01,VS,SYN-2026-01-SITE-102-046,23,PULSE,Pulse Rate,66,beats/min,66,beats/min,2026-06-04,End of study,5
SYN-2026-01,VS,SYN-2026-01-SITE-102-046,24,TEMP,Temperature,36.7,C,36.7,C,2026-06-04,End of study,5
SYN-2026-01,VS,SYN-2026-01-SITE-102-046,25,WEIGHT,Weight,91.0,kg,91.0,kg,2026-06-04,End of study,5
SYN-2026-01,VS,SYN-2026-01-SITE-102-055,1,SYSBP,Systolic Blood Pressure,143,mmHg,143,mmHg,2026-01-09,Screening,1
SYN-2026-01,VS,SYN-2026-01-SITE-102-055,2,DIABP,Diastolic Blood Pressure,82,mmHg,82,mmHg,2026-01-09,Screening,1
SYN-2026-01,VS,SYN-2026-01-SITE-102-055,3,PULSE,Pulse Rate,73,beats/min,73,beats/min,2026-01-09,Screening,1
SYN-2026-01,VS,SYN-2026-01-SITE-102-055,4,TEMP,Temperature,36.6,C,36.6,C,2026-01-09,Screening,1
SYN-2026-01,VS,SYN-2026-01-SITE-102-055,5,WEIGHT,Weight,58.1,kg,58.1,kg,2026-01-09,Screening,1
SYN-2026-01,VS,SYN-2026-01-SITE-102-055,6,SYSBP,Systolic Blood Pressure,155,mmHg,155,mmHg,2026-01-29,Baseline / Day 1,2
SYN-2026-01,VS,SYN-2026-01-SITE-102-055,7,DIABP,Diastolic Blood Pressure,86,mmHg,86,mmHg,2026-01-29,Baseline / Day 1,2
SYN-2026-01,VS,SYN-2026-01-SITE-102-055,8,PULSE,Pulse Rate,69,beats/min,69,beats/min,2026-01-29,Baseline / Day 1,2
SYN-2026-01,VS,SYN-2026-01-SITE-102-055,9,TEMP,Temperature,36.9,C,36.9,C,2026-01-29,Baseline / Day 1,2
SYN-2026-01,VS,SYN-2026-01-SITE-102-055,10,WEIGHT,Weight,84.9,kg,84.9,kg,2026-01-29,Baseline / Day 1,2
SYN-2026-01,VS,SYN-2026-01-SITE-102-055,11,SYSBP,Systolic Blood Pressure,114,mmHg,114,mmHg,2026-02-24,Week 4,3
SYN-2026-01,VS,SYN-2026-01-SITE-102-055,12,DIABP,Diastolic Blood Pressure,72,mmHg,72,mmHg,2026-02-24,Week 4,3
SYN-2026-01,VS,SYN-2026-01-SITE-102-055,13,PULSE,Pulse Rate,70,beats/min,70,beats/min,2026-02-24,Week 4,3
SYN-2026-01,VS,SYN-2026-01-SITE-102-055,14,TEMP,Temperature,36.0,C,36.0,C,2026-02-24,Week 4,3
SYN-2026-01,VS,SYN-2026-01-SITE-102-055,15,WEIGHT,Weight,76.4,kg,76.4,kg,2026-02-24,Week 4,3
SYN-2026-01,VS,SYN-2026-01-SITE-102-055,16,SYSBP,Systolic Blood Pressure,127,mmHg,127,mmHg,2026-05-06,Week 12,4
SYN-2026-01,VS,SYN-2026-01-SITE-102-055,17,DIABP,Diastolic Blood Pressure,70,mmHg,70,mmHg,2026-05-06,Week 12,4
SYN-2026-01,VS,SYN-2026-01-SITE-102-055,18,PULSE,Pulse Rate,66,beats/min,66,beats/min,2026-05-06,Week 12,4
SYN-2026-01,VS,SYN-2026-01-SITE-102-055,19,TEMP,Temperature,37.0,C,37.0,C,2026-05-06,Week 12,4
SYN-2026-01,VS,SYN-2026-01-SITE-102-055,20,WEIGHT,Weight,65.4,kg,65.4,kg,2026-05-06,Week 12,4
SYN-2026-01,VS,SYN-2026-01-SITE-102-055,21,SYSBP,Systolic Blood Pressure,143,mmHg,143,mmHg,2026-07-12,End of study,5
SYN-2026-01,VS,SYN-2026-01-SITE-102-055,22,DIABP,Diastolic Blood Pressure,86,mmHg,86,mmHg,2026-07-12,End of study,5
SYN-2026-01,VS,SYN-2026-01-SITE-102-055,23,PULSE,Pulse Rate,100,beats/min,100,beats/min,2026-07-12,End of study,5
SYN-2026-01,VS,SYN-2026-01-SITE-102-055,24,TEMP,Temperature,36.3,C,36.3,C,2026-07-12,End of study,5
SYN-2026-01,VS,SYN-2026-01-SITE-102-055,25,WEIGHT,Weight,83.3,kg,83.3,kg,2026-07-12,End of study,5
SYN-2026-01,VS,SYN-2026-01-SITE-102-061,1,SYSBP,Systolic Blood Pressure,144,mmHg,144,mmHg,2025-10-25,Screening,1
SYN-2026-01,VS,SYN-2026-01-SITE-102-061,2,DIABP,Diastolic Blood Pressure,74,mmHg,74,mmHg,2025-10-25,Screening,1
SYN-2026-01,VS,SYN-2026-01-SITE-102-061,3,PULSE,Pulse Rate,74,beats/min,74,beats/min,2025-10-25,Screening,1
SYN-2026-01,VS,SYN-2026-01-SITE-102-061,4,TEMP,Temperature,36.8,C,36.8,C,2025-10-25,Screening,1
SYN-2026-01,VS,SYN-2026-01-SITE-102-061,5,WEIGHT,Weight,69.1,kg,69.1,kg,2025-10-25,Screening,1
SYN-2026-01,VS,SYN-2026-01-SITE-102-061,6,SYSBP,Systolic Blood Pressure,127,mmHg,127,mmHg,2025-11-14,Baseline / Day 1,2
SYN-2026-01,VS,SYN-2026-01-SITE-102-061,7,DIABP,Diastolic Blood Pressure,59,mmHg,59,mmHg,2025-11-14,Baseline / Day 1,2
SYN-2026-01,VS,SYN-2026-01-SITE-102-061,8,PULSE,Pulse Rate,71,beats/min,71,beats/min,2025-11-14,Baseline / Day 1,2
SYN-2026-01,VS,SYN-2026-01-SITE-102-061,9,WEIGHT,Weight,87.0,kg,87.0,kg,2025-11-14,Baseline / Day 1,2
SYN-2026-01,VS,SYN-2026-01-SITE-102-061,10,SYSBP,Systolic Blood Pressure,131,mmHg,131,mmHg,2025-12-10,Week 4,3
SYN-2026-01,VS,SYN-2026-01-SITE-102-061,11,DIABP,Diastolic Blood Pressure,89,mmHg,89,mmHg,2025-12-10,Week 4,3
SYN-2026-01,VS,SYN-2026-01-SITE-102-061,12,PULSE,Pulse Rate,63,beats/min,63,beats/min,2025-12-10,Week 4,3
SYN-2026-01,VS,SYN-2026-01-SITE-102-061,13,TEMP,Temperature,36.5,C,36.5,C,2025-12-10,Week 4,3
SYN-2026-01,VS,SYN-2026-01-SITE-102-061,14,WEIGHT,Weight,93.8,kg,93.8,kg,2025-12-10,Week 4,3
SYN-2026-01,VS,SYN-2026-01-SITE-102-061,15,SYSBP,Systolic Blood Pressure,68,mmHg,68,mmHg,2026-02-10,Week 12,4
SYN-2026-01,VS,SYN-2026-01-SITE-102-061,16,DIABP,Diastolic Blood Pressure,115,mmHg,115,mmHg,2026-02-10,Week 12,4
SYN-2026-01,VS,SYN-2026-01-SITE-102-061,17,PULSE,Pulse Rate,64,beats/min,64,beats/min,2026-02-10,Week 12,4
SYN-2026-01,VS,SYN-2026-01-SITE-102-061,18,WEIGHT,Weight,90.4,kg,90.4,kg,2026-02-10,Week 12,4
SYN-2026-01,VS,SYN-2026-01-SITE-102-061,19,SYSBP,Systolic Blood Pressure,135,mmHg,135,mmHg,2026-05-02,End of study,5
SYN-2026-01,VS,SYN-2026-01-SITE-102-061,20,DIABP,Diastolic Blood Pressure,78,mmHg,78,mmHg,2026-05-02,End of study,5
SYN-2026-01,VS,SYN-2026-01-SITE-102-061,21,PULSE,Pulse Rate,79,beats/min,79,beats/min,2026-05-02,End of study,5
SYN-2026-01,VS,SYN-2026-01-SITE-102-061,22,TEMP,Temperature,36.5,C,36.5,C,2026-05-02,End of study,5
SYN-2026-01,VS,SYN-2026-01-SITE-102-061,23,WEIGHT,Weight,76.0,kg,76.0,kg,2026-05-02,End of study,5
SYN-2026-01,VS,SYN-2026-01-SITE-102-064,1,SYSBP,Systolic Blood Pressure,134,mmHg,134,mmHg,2025-10-04,Screening,1
SYN-2026-01,VS,SYN-2026-01-SITE-102-064,2,DIABP,Diastolic Blood Pressure,93,mmHg,93,mmHg,2025-10-04,Screening,1
SYN-2026-01,VS,SYN-2026-01-SITE-102-064,3,PULSE,Pulse Rate,96,beats/min,96,beats/min,2025-10-04,Screening,1
SYN-2026-01,VS,SYN-2026-01-SITE-102-064,4,TEMP,Temperature,36.4,C,36.4,C,2025-10-04,Screening,1
SYN-2026-01,VS,SYN-2026-01-SITE-102-064,5,WEIGHT,Weight,69.2,kg,69.2,kg,2025-10-04,Screening,1
SYN-2026-01,VS,SYN-2026-01-SITE-102-064,6,SYSBP,Systolic Blood Pressure,150,mmHg,150,mmHg,2025-11-04,Baseline / Day 1,2
SYN-2026-01,VS,SYN-2026-01-SITE-102-064,7,DIABP,Diastolic Blood Pressure,78,mmHg,78,mmHg,2025-11-04,Baseline / Day 1,2
SYN-2026-01,VS,SYN-2026-01-SITE-102-064,8,PULSE,Pulse Rate,82,beats/min,82,beats/min,2025-11-04,Baseline / Day 1,2
SYN-2026-01,VS,SYN-2026-01-SITE-102-064,9,TEMP,Temperature,36.6,C,36.6,C,2025-11-04,Baseline / Day 1,2
SYN-2026-01,VS,SYN-2026-01-SITE-102-064,10,WEIGHT,Weight,69.3,kg,69.3,kg,2025-11-04,Baseline / Day 1,2
SYN-2026-01,VS,SYN-2026-01-SITE-102-064,11,SYSBP,Systolic Blood Pressure,122,mmHg,122,mmHg,2025-12-03,Week 4,3
SYN-2026-01,VS,SYN-2026-01-SITE-102-064,12,DIABP,Diastolic Blood Pressure,85,mmHg,85,mmHg,2025-12-03,Week 4,3
SYN-2026-01,VS,SYN-2026-01-SITE-102-064,13,PULSE,Pulse Rate,80,beats/min,80,beats/min,2025-12-03,Week 4,3
SYN-2026-01,VS,SYN-2026-01-SITE-102-064,14,TEMP,Temperature,37.2,C,37.2,C,2025-12-03,Week 4,3
SYN-2026-01,VS,SYN-2026-01-SITE-102-064,15,WEIGHT,Weight,88.6,kg,88.6,kg,2025-12-03,Week 4,3
SYN-2026-01,VS,SYN-2026-01-SITE-102-064,16,SYSBP,Systolic Blood Pressure,137,mmHg,137,mmHg,2026-01-29,Week 12,4
SYN-2026-01,VS,SYN-2026-01-SITE-102-064,17,DIABP,Diastolic Blood Pressure,70,mmHg,70,mmHg,2026-01-29,Week 12,4
SYN-2026-01,VS,SYN-2026-01-SITE-102-064,18,PULSE,Pulse Rate,67,beats/min,67,beats/min,2026-01-29,Week 12,4
SYN-2026-01,VS,SYN-2026-01-SITE-102-064,19,TEMP,Temperature,36.6,C,36.6,C,2026-01-29,Week 12,4
SYN-2026-01,VS,SYN-2026-01-SITE-102-064,20,WEIGHT,Weight,70.3,kg,70.3,kg,2026-01-29,Week 12,4
SYN-2026-01,VS,SYN-2026-01-SITE-102-065,1,SYSBP,Systolic Blood Pressure,128,mmHg,128,mmHg,2025-09-18,Screening,1
SYN-2026-01,VS,SYN-2026-01-SITE-102-065,2,DIABP,Diastolic Blood Pressure,73,mmHg,73,mmHg,2025-09-18,Screening,1
SYN-2026-01,VS,SYN-2026-01-SITE-102-065,3,PULSE,Pulse Rate,76,beats/min,76,beats/min,2025-09-18,Screening,1
SYN-2026-01,VS,SYN-2026-01-SITE-102-065,4,TEMP,Temperature,36.5,C,36.5,C,2025-09-18,Screening,1
SYN-2026-01,VS,SYN-2026-01-SITE-102-065,5,WEIGHT,Weight,90.7,kg,90.7,kg,2025-09-18,Screening,1
SYN-2026-01,VS,SYN-2026-01-SITE-102-065,6,SYSBP,Systolic Blood Pressure,127,mmHg,127,mmHg,2025-10-04,Baseline / Day 1,2
SYN-2026-01,VS,SYN-2026-01-SITE-102-065,7,DIABP,Diastolic Blood Pressure,80,mmHg,80,mmHg,2025-10-04,Baseline / Day 1,2
SYN-2026-01,VS,SYN-2026-01-SITE-102-065,8,PULSE,Pulse Rate,62,beats/min,62,beats/min,2025-10-04,Baseline / Day 1,2
SYN-2026-01,VS,SYN-2026-01-SITE-102-065,9,TEMP,Temperature,36.8,C,36.8,C,2025-10-04,Baseline / Day 1,2
SYN-2026-01,VS,SYN-2026-01-SITE-102-065,10,WEIGHT,Weight,65.4,kg,65.4,kg,2025-10-04,Baseline / Day 1,2
SYN-2026-01,VS,SYN-2026-01-SITE-102-065,11,SYSBP,Systolic Blood Pressure,105,mmHg,105,mmHg,2025-10-30,Week 4,3
SYN-2026-01,VS,SYN-2026-01-SITE-102-065,12,DIABP,Diastolic Blood Pressure,84,mmHg,84,mmHg,2025-10-30,Week 4,3
SYN-2026-01,VS,SYN-2026-01-SITE-102-065,13,PULSE,Pulse Rate,72,beats/min,72,beats/min,2025-10-30,Week 4,3
SYN-2026-01,VS,SYN-2026-01-SITE-102-065,14,TEMP,Temperature,36.7,C,36.7,C,2025-10-30,Week 4,3
SYN-2026-01,VS,SYN-2026-01-SITE-102-065,15,WEIGHT,Weight,82.8,kg,82.8,kg,2025-10-30,Week 4,3
SYN-2026-01,VS,SYN-2026-01-SITE-102-065,16,SYSBP,Systolic Blood Pressure,120,mmHg,120,mmHg,2025-12-26,Week 12,4
SYN-2026-01,VS,SYN-2026-01-SITE-102-065,17,DIABP,Diastolic Blood Pressure,85,mmHg,85,mmHg,2025-12-26,Week 12,4
SYN-2026-01,VS,SYN-2026-01-SITE-102-065,18,PULSE,Pulse Rate,76,beats/min,76,beats/min,2025-12-26,Week 12,4
SYN-2026-01,VS,SYN-2026-01-SITE-102-065,19,TEMP,Temperature,36.6,C,36.6,C,2025-12-26,Week 12,4
SYN-2026-01,VS,SYN-2026-01-SITE-102-065,20,WEIGHT,Weight,61.6,kg,61.6,kg,2025-12-26,Week 12,4
SYN-2026-01,VS,SYN-2026-01-SITE-102-065,21,SYSBP,Systolic Blood Pressure,127,mmHg,127,mmHg,2026-03-25,End of study,5
SYN-2026-01,VS,SYN-2026-01-SITE-102-065,22,DIABP,Diastolic Blood Pressure,71,mmHg,71,mmHg,2026-03-25,End of study,5
SYN-2026-01,VS,SYN-2026-01-SITE-102-065,23,PULSE,Pulse Rate,64,beats/min,64,beats/min,2026-03-25,End of study,5
SYN-2026-01,VS,SYN-2026-01-SITE-102-065,24,TEMP,Temperature,36.3,C,36.3,C,2026-03-25,End of study,5
SYN-2026-01,VS,SYN-2026-01-SITE-102-065,25,WEIGHT,Weight,84.3,kg,84.3,kg,2026-03-25,End of study,5
SYN-2026-01,VS,SYN-2026-01-SITE-102-070,1,SYSBP,Systolic Blood Pressure,126,mmHg,126,mmHg,2026-02-09,Screening,1
SYN-2026-01,VS,SYN-2026-01-SITE-102-070,2,DIABP,Diastolic Blood Pressure,77,mmHg,77,mmHg,2026-02-09,Screening,1
SYN-2026-01,VS,SYN-2026-01-SITE-102-070,3,PULSE,Pulse Rate,56,beats/min,56,beats/min,2026-02-09,Screening,1
SYN-2026-01,VS,SYN-2026-01-SITE-102-070,4,TEMP,Temperature,36.5,C,36.5,C,2026-02-09,Screening,1
SYN-2026-01,VS,SYN-2026-01-SITE-102-070,5,WEIGHT,Weight,72.1,kg,72.1,kg,2026-02-09,Screening,1
SYN-2026-01,VS,SYN-2026-01-SITE-102-070,6,SYSBP,Systolic Blood Pressure,153,mmHg,153,mmHg,2026-02-18,Baseline / Day 1,2
SYN-2026-01,VS,SYN-2026-01-SITE-102-070,7,DIABP,Diastolic Blood Pressure,72,mmHg,72,mmHg,2026-02-18,Baseline / Day 1,2
SYN-2026-01,VS,SYN-2026-01-SITE-102-070,8,PULSE,Pulse Rate,76,beats/min,76,beats/min,2026-02-18,Baseline / Day 1,2
SYN-2026-01,VS,SYN-2026-01-SITE-102-070,9,TEMP,Temperature,37.4,C,37.4,C,2026-02-18,Baseline / Day 1,2
SYN-2026-01,VS,SYN-2026-01-SITE-102-070,10,WEIGHT,Weight,82.5,kg,82.5,kg,2026-02-18,Baseline / Day 1,2
SYN-2026-01,VS,SYN-2026-01-SITE-102-070,11,SYSBP,Systolic Blood Pressure,133,mmHg,133,mmHg,2026-03-17,Week 4,3
SYN-2026-01,VS,SYN-2026-01-SITE-102-070,12,DIABP,Diastolic Blood Pressure,85,mmHg,85,mmHg,2026-03-17,Week 4,3
SYN-2026-01,VS,SYN-2026-01-SITE-102-070,13,PULSE,Pulse Rate,84,beats/min,84,beats/min,2026-03-17,Week 4,3
SYN-2026-01,VS,SYN-2026-01-SITE-102-070,14,WEIGHT,Weight,65.0,kg,65.0,kg,2026-03-17,Week 4,3
SYN-2026-01,VS,SYN-2026-01-SITE-102-070,15,SYSBP,Systolic Blood Pressure,129,mmHg,129,mmHg,2026-05-14,Week 12,4
SYN-2026-01,VS,SYN-2026-01-SITE-102-070,16,DIABP,Diastolic Blood Pressure,83,mmHg,83,mmHg,2026-05-14,Week 12,4
SYN-2026-01,VS,SYN-2026-01-SITE-102-070,17,PULSE,Pulse Rate,79,beats/min,79,beats/min,2026-05-14,Week 12,4
SYN-2026-01,VS,SYN-2026-01-SITE-102-070,18,WEIGHT,Weight,94.8,kg,94.8,kg,2026-05-14,Week 12,4
SYN-2026-01,VS,SYN-2026-01-SITE-102-070,19,SYSBP,Systolic Blood Pressure,140,mmHg,140,mmHg,2026-08-06,End of study,5
SYN-2026-01,VS,SYN-2026-01-SITE-102-070,20,DIABP,Diastolic Blood Pressure,69,mmHg,69,mmHg,2026-08-06,End of study,5
SYN-2026-01,VS,SYN-2026-01-SITE-102-070,21,PULSE,Pulse Rate,69,beats/min,69,beats/min,2026-08-06,End of study,5
SYN-2026-01,VS,SYN-2026-01-SITE-102-070,22,TEMP,Temperature,36.7,C,36.7,C,2026-08-06,End of study,5
SYN-2026-01,VS,SYN-2026-01-SITE-102-070,23,WEIGHT,Weight,56.7,kg,56.7,kg,2026-08-06,End of study,5
SYN-2026-01,VS,SYN-2026-01-SITE-102-088,1,SYSBP,Systolic Blood Pressure,147,mmHg,147,mmHg,2025-09-02,Screening,1
SYN-2026-01,VS,SYN-2026-01-SITE-102-088,2,DIABP,Diastolic Blood Pressure,69,mmHg,69,mmHg,2025-09-02,Screening,1
SYN-2026-01,VS,SYN-2026-01-SITE-102-088,3,PULSE,Pulse Rate,83,beats/min,83,beats/min,2025-09-02,Screening,1
SYN-2026-01,VS,SYN-2026-01-SITE-102-088,4,TEMP,Temperature,36.6,C,36.6,C,2025-09-02,Screening,1
SYN-2026-01,VS,SYN-2026-01-SITE-102-088,5,WEIGHT,Weight,85.0,kg,85.0,kg,2025-09-02,Screening,1
SYN-2026-01,VS,SYN-2026-01-SITE-102-088,6,SYSBP,Systolic Blood Pressure,149,mmHg,149,mmHg,2025-09-16,Baseline / Day 1,2
SYN-2026-01,VS,SYN-2026-01-SITE-102-088,7,DIABP,Diastolic Blood Pressure,72,mmHg,72,mmHg,2025-09-16,Baseline / Day 1,2
SYN-2026-01,VS,SYN-2026-01-SITE-102-088,8,PULSE,Pulse Rate,71,beats/min,71,beats/min,2025-09-16,Baseline / Day 1,2
SYN-2026-01,VS,SYN-2026-01-SITE-102-088,9,TEMP,Temperature,36.9,C,36.9,C,2025-09-16,Baseline / Day 1,2
SYN-2026-01,VS,SYN-2026-01-SITE-102-088,10,WEIGHT,Weight,94.9,kg,94.9,kg,2025-09-16,Baseline / Day 1,2
SYN-2026-01,VS,SYN-2026-01-SITE-102-088,11,SYSBP,Systolic Blood Pressure,149,mmHg,149,mmHg,2025-10-13,Week 4,3
SYN-2026-01,VS,SYN-2026-01-SITE-102-088,12,DIABP,Diastolic Blood Pressure,57,mmHg,57,mmHg,2025-10-13,Week 4,3
SYN-2026-01,VS,SYN-2026-01-SITE-102-088,13,PULSE,Pulse Rate,73,beats/min,73,beats/min,2025-10-13,Week 4,3
SYN-2026-01,VS,SYN-2026-01-SITE-102-088,14,WEIGHT,Weight,60.3,kg,60.3,kg,2025-10-13,Week 4,3
SYN-2026-01,VS,SYN-2026-01-SITE-102-088,15,SYSBP,Systolic Blood Pressure,145,mmHg,145,mmHg,2025-12-03,Week 12,4
SYN-2026-01,VS,SYN-2026-01-SITE-102-088,16,DIABP,Diastolic Blood Pressure,79,mmHg,79,mmHg,2025-12-03,Week 12,4
SYN-2026-01,VS,SYN-2026-01-SITE-102-088,17,PULSE,Pulse Rate,70,beats/min,70,beats/min,2025-12-03,Week 12,4
SYN-2026-01,VS,SYN-2026-01-SITE-102-088,18,TEMP,Temperature,36.0,C,36.0,C,2025-12-03,Week 12,4
SYN-2026-01,VS,SYN-2026-01-SITE-102-088,19,WEIGHT,Weight,94.9,kg,94.9,kg,2025-12-03,Week 12,4
SYN-2026-01,VS,SYN-2026-01-SITE-102-088,20,SYSBP,Systolic Blood Pressure,120,mmHg,120,mmHg,2026-02-27,End of study,5
SYN-2026-01,VS,SYN-2026-01-SITE-102-088,21,DIABP,Diastolic Blood Pressure,72,mmHg,72,mmHg,2026-02-27,End of study,5
SYN-2026-01,VS,SYN-2026-01-SITE-102-088,22,PULSE,Pulse Rate,78,beats/min,78,beats/min,2026-02-27,End of study,5
SYN-2026-01,VS,SYN-2026-01-SITE-102-088,23,TEMP,Temperature,36.3,C,36.3,C,2026-02-27,End of study,5
SYN-2026-01,VS,SYN-2026-01-SITE-102-088,24,WEIGHT,Weight,97.4,kg,97.4,kg,2026-02-27,End of study,5
SYN-2026-01,VS,SYN-2026-01-SITE-102-096,1,SYSBP,Systolic Blood Pressure,160,mmHg,160,mmHg,2026-02-13,Screening,1
SYN-2026-01,VS,SYN-2026-01-SITE-102-096,2,DIABP,Diastolic Blood Pressure,69,mmHg,69,mmHg,2026-02-13,Screening,1
SYN-2026-01,VS,SYN-2026-01-SITE-102-096,3,PULSE,Pulse Rate,77,beats/min,77,beats/min,2026-02-13,Screening,1
SYN-2026-01,VS,SYN-2026-01-SITE-102-096,4,TEMP,Temperature,36.5,C,36.5,C,2026-02-13,Screening,1
SYN-2026-01,VS,SYN-2026-01-SITE-102-096,5,WEIGHT,Weight,107.7,kg,107.7,kg,2026-02-13,Screening,1
SYN-2026-01,VS,SYN-2026-01-SITE-102-096,6,SYSBP,Systolic Blood Pressure,123,mmHg,123,mmHg,2026-03-04,Baseline / Day 1,2
SYN-2026-01,VS,SYN-2026-01-SITE-102-096,7,DIABP,Diastolic Blood Pressure,93,mmHg,93,mmHg,2026-03-04,Baseline / Day 1,2
SYN-2026-01,VS,SYN-2026-01-SITE-102-096,8,PULSE,Pulse Rate,81,beats/min,81,beats/min,2026-03-04,Baseline / Day 1,2
SYN-2026-01,VS,SYN-2026-01-SITE-102-096,9,TEMP,Temperature,37.0,C,37.0,C,2026-03-04,Baseline / Day 1,2
SYN-2026-01,VS,SYN-2026-01-SITE-102-096,10,SYSBP,Systolic Blood Pressure,127,mmHg,127,mmHg,2026-03-31,Week 4,3
SYN-2026-01,VS,SYN-2026-01-SITE-102-096,11,DIABP,Diastolic Blood Pressure,81,mmHg,81,mmHg,2026-03-31,Week 4,3
SYN-2026-01,VS,SYN-2026-01-SITE-102-096,12,PULSE,Pulse Rate,78,beats/min,78,beats/min,2026-03-31,Week 4,3
SYN-2026-01,VS,SYN-2026-01-SITE-102-096,13,WEIGHT,Weight,102.7,kg,102.7,kg,2026-03-31,Week 4,3
SYN-2026-01,VS,SYN-2026-01-SITE-102-096,14,SYSBP,Systolic Blood Pressure,132,mmHg,132,mmHg,2026-05-26,Week 12,4
SYN-2026-01,VS,SYN-2026-01-SITE-102-096,15,DIABP,Diastolic Blood Pressure,65,mmHg,65,mmHg,2026-05-26,Week 12,4
SYN-2026-01,VS,SYN-2026-01-SITE-102-096,16,PULSE,Pulse Rate,59,beats/min,59,beats/min,2026-05-26,Week 12,4
SYN-2026-01,VS,SYN-2026-01-SITE-102-096,17,WEIGHT,Weight,93.7,kg,93.7,kg,2026-05-26,Week 12,4
SYN-2026-01,VS,SYN-2026-01-SITE-102-096,18,SYSBP,Systolic Blood Pressure,125,mmHg,125,mmHg,2026-08-13,End of study,5
SYN-2026-01,VS,SYN-2026-01-SITE-102-096,19,DIABP,Diastolic Blood Pressure,70,mmHg,70,mmHg,2026-08-13,End of study,5
SYN-2026-01,VS,SYN-2026-01-SITE-102-096,20,PULSE,Pulse Rate,79,beats/min,79,beats/min,2026-08-13,End of study,5
SYN-2026-01,VS,SYN-2026-01-SITE-102-096,21,TEMP,Temperature,36.7,C,36.7,C,2026-08-13,End of study,5
SYN-2026-01,VS,SYN-2026-01-SITE-102-096,22,WEIGHT,Weight,83.4,kg,83.4,kg,2026-08-13,End of study,5
SYN-2026-01,VS,SYN-2026-01-SITE-102-097,1,SYSBP,Systolic Blood Pressure,127,mmHg,127,mmHg,2026-03-27,Screening,1
SYN-2026-01,VS,SYN-2026-01-SITE-102-097,2,DIABP,Diastolic Blood Pressure,81,mmHg,81,mmHg,2026-03-27,Screening,1
SYN-2026-01,VS,SYN-2026-01-SITE-102-097,3,PULSE,Pulse Rate,68,beats/min,68,beats/min,2026-03-27,Screening,1
SYN-2026-01,VS,SYN-2026-01-SITE-102-097,4,WEIGHT,Weight,77.1,kg,77.1,kg,2026-03-27,Screening,1
SYN-2026-01,VS,SYN-2026-01-SITE-102-097,5,SYSBP,Systolic Blood Pressure,115,mmHg,115,mmHg,2026-04-09,Baseline / Day 1,2
SYN-2026-01,VS,SYN-2026-01-SITE-102-097,6,DIABP,Diastolic Blood Pressure,82,mmHg,82,mmHg,2026-04-09,Baseline / Day 1,2
SYN-2026-01,VS,SYN-2026-01-SITE-102-097,7,PULSE,Pulse Rate,68,beats/min,68,beats/min,2026-04-09,Baseline / Day 1,2
SYN-2026-01,VS,SYN-2026-01-SITE-102-097,8,WEIGHT,Weight,70.5,kg,70.5,kg,2026-04-09,Baseline / Day 1,2
SYN-2026-01,VS,SYN-2026-01-SITE-102-097,9,SYSBP,Systolic Blood Pressure,143,mmHg,143,mmHg,2026-05-05,Week 4,3
SYN-2026-01,VS,SYN-2026-01-SITE-102-097,10,DIABP,Diastolic Blood Pressure,67,mmHg,67,mmHg,2026-05-05,Week 4,3
SYN-2026-01,VS,SYN-2026-01-SITE-102-097,11,PULSE,Pulse Rate,74,beats/min,74,beats/min,2026-05-05,Week 4,3
SYN-2026-01,VS,SYN-2026-01-SITE-102-097,12,TEMP,Temperature,36.6,C,36.6,C,2026-05-05,Week 4,3
SYN-2026-01,VS,SYN-2026-01-SITE-102-097,13,WEIGHT,Weight,92.4,kg,92.4,kg,2026-05-05,Week 4,3
SYN-2026-01,VS,SYN-2026-01-SITE-102-097,14,SYSBP,Systolic Blood Pressure,144,mmHg,144,mmHg,2026-06-26,Week 12,4
SYN-2026-01,VS,SYN-2026-01-SITE-102-097,15,DIABP,Diastolic Blood Pressure,82,mmHg,82,mmHg,2026-06-26,Week 12,4
SYN-2026-01,VS,SYN-2026-01-SITE-102-097,16,PULSE,Pulse Rate,80,beats/min,80,beats/min,2026-06-26,Week 12,4
SYN-2026-01,VS,SYN-2026-01-SITE-102-097,17,TEMP,Temperature,36.5,C,36.5,C,2026-06-26,Week 12,4
SYN-2026-01,VS,SYN-2026-01-SITE-102-097,18,WEIGHT,Weight,45.0,kg,45.0,kg,2026-06-26,Week 12,4
SYN-2026-01,VS,SYN-2026-01-SITE-102-097,19,SYSBP,Systolic Blood Pressure,133,mmHg,133,mmHg,2026-09-22,End of study,5
SYN-2026-01,VS,SYN-2026-01-SITE-102-097,20,DIABP,Diastolic Blood Pressure,87,mmHg,87,mmHg,2026-09-22,End of study,5
SYN-2026-01,VS,SYN-2026-01-SITE-102-097,21,PULSE,Pulse Rate,71,beats/min,71,beats/min,2026-09-22,End of study,5
SYN-2026-01,VS,SYN-2026-01-SITE-102-097,22,WEIGHT,Weight,63.0,kg,63.0,kg,2026-09-22,End of study,5
SYN-2026-01,VS,SYN-2026-01-SITE-102-103,1,SYSBP,Systolic Blood Pressure,122,mmHg,122,mmHg,2026-01-20,Screening,1
SYN-2026-01,VS,SYN-2026-01-SITE-102-103,2,DIABP,Diastolic Blood Pressure,86,mmHg,86,mmHg,2026-01-20,Screening,1
SYN-2026-01,VS,SYN-2026-01-SITE-102-103,3,PULSE,Pulse Rate,57,beats/min,57,beats/min,2026-01-20,Screening,1
SYN-2026-01,VS,SYN-2026-01-SITE-102-103,4,TEMP,Temperature,37.0,C,37.0,C,2026-01-20,Screening,1
SYN-2026-01,VS,SYN-2026-01-SITE-102-103,5,WEIGHT,Weight,71.3,kg,71.3,kg,2026-01-20,Screening,1
SYN-2026-01,VS,SYN-2026-01-SITE-102-103,6,SYSBP,Systolic Blood Pressure,136,mmHg,136,mmHg,2026-02-05,Baseline / Day 1,2
SYN-2026-01,VS,SYN-2026-01-SITE-102-103,7,DIABP,Diastolic Blood Pressure,87,mmHg,87,mmHg,2026-02-05,Baseline / Day 1,2
SYN-2026-01,VS,SYN-2026-01-SITE-102-103,8,PULSE,Pulse Rate,93,beats/min,93,beats/min,2026-02-05,Baseline / Day 1,2
SYN-2026-01,VS,SYN-2026-01-SITE-102-103,9,TEMP,Temperature,36.8,C,36.8,C,2026-02-05,Baseline / Day 1,2
SYN-2026-01,VS,SYN-2026-01-SITE-102-103,10,WEIGHT,Weight,71.6,kg,71.6,kg,2026-02-05,Baseline / Day 1,2
SYN-2026-01,VS,SYN-2026-01-SITE-102-103,11,SYSBP,Systolic Blood Pressure,115,mmHg,115,mmHg,2026-03-02,Week 4,3
SYN-2026-01,VS,SYN-2026-01-SITE-102-103,12,DIABP,Diastolic Blood Pressure,77,mmHg,77,mmHg,2026-03-02,Week 4,3
SYN-2026-01,VS,SYN-2026-01-SITE-102-103,13,PULSE,Pulse Rate,70,beats/min,70,beats/min,2026-03-02,Week 4,3
SYN-2026-01,VS,SYN-2026-01-SITE-102-103,14,TEMP,Temperature,36.7,C,36.7,C,2026-03-02,Week 4,3
SYN-2026-01,VS,SYN-2026-01-SITE-102-103,15,WEIGHT,Weight,42.0,kg,42.0,kg,2026-03-02,Week 4,3
SYN-2026-01,VS,SYN-2026-01-SITE-102-103,16,SYSBP,Systolic Blood Pressure,126,mmHg,126,mmHg,2026-04-28,Week 12,4
SYN-2026-01,VS,SYN-2026-01-SITE-102-103,17,DIABP,Diastolic Blood Pressure,77,mmHg,77,mmHg,2026-04-28,Week 12,4
SYN-2026-01,VS,SYN-2026-01-SITE-102-103,18,PULSE,Pulse Rate,68,beats/min,68,beats/min,2026-04-28,Week 12,4
SYN-2026-01,VS,SYN-2026-01-SITE-102-103,19,TEMP,Temperature,37.4,C,37.4,C,2026-04-28,Week 12,4
SYN-2026-01,VS,SYN-2026-01-SITE-102-103,20,WEIGHT,Weight,74.6,kg,74.6,kg,2026-04-28,Week 12,4
SYN-2026-01,VS,SYN-2026-01-SITE-102-103,21,SYSBP,Systolic Blood Pressure,123,mmHg,123,mmHg,2026-07-18,End of study,5
SYN-2026-01,VS,SYN-2026-01-SITE-102-103,22,DIABP,Diastolic Blood Pressure,74,mmHg,74,mmHg,2026-07-18,End of study,5
SYN-2026-01,VS,SYN-2026-01-SITE-102-103,23,PULSE,Pulse Rate,76,beats/min,76,beats/min,2026-07-18,End of study,5
SYN-2026-01,VS,SYN-2026-01-SITE-102-103,24,WEIGHT,Weight,97.3,kg,97.3,kg,2026-07-18,End of study,5
SYN-2026-01,VS,SYN-2026-01-SITE-102-104,1,SYSBP,Systolic Blood Pressure,115,mmHg,115,mmHg,2025-11-09,Screening,1
SYN-2026-01,VS,SYN-2026-01-SITE-102-104,2,DIABP,Diastolic Blood Pressure,84,mmHg,84,mmHg,2025-11-09,Screening,1
SYN-2026-01,VS,SYN-2026-01-SITE-102-104,3,PULSE,Pulse Rate,74,beats/min,74,beats/min,2025-11-09,Screening,1
SYN-2026-01,VS,SYN-2026-01-SITE-102-104,4,TEMP,Temperature,36.7,C,36.7,C,2025-11-09,Screening,1
SYN-2026-01,VS,SYN-2026-01-SITE-102-104,5,WEIGHT,Weight,85.0,kg,85.0,kg,2025-11-09,Screening,1
SYN-2026-01,VS,SYN-2026-01-SITE-102-104,6,SYSBP,Systolic Blood Pressure,142,mmHg,142,mmHg,2025-11-28,Baseline / Day 1,2
SYN-2026-01,VS,SYN-2026-01-SITE-102-104,7,DIABP,Diastolic Blood Pressure,83,mmHg,83,mmHg,2025-11-28,Baseline / Day 1,2
SYN-2026-01,VS,SYN-2026-01-SITE-102-104,8,PULSE,Pulse Rate,78,beats/min,78,beats/min,2025-11-28,Baseline / Day 1,2
SYN-2026-01,VS,SYN-2026-01-SITE-102-104,9,TEMP,Temperature,36.6,C,36.6,C,2025-11-28,Baseline / Day 1,2
SYN-2026-01,VS,SYN-2026-01-SITE-102-104,10,WEIGHT,Weight,69.3,kg,69.3,kg,2025-11-28,Baseline / Day 1,2
SYN-2026-01,VS,SYN-2026-01-SITE-102-104,11,SYSBP,Systolic Blood Pressure,310,mmHg,310,mmHg,2025-12-26,Week 4,3
SYN-2026-01,VS,SYN-2026-01-SITE-102-104,12,DIABP,Diastolic Blood Pressure,73,mmHg,73,mmHg,2025-12-26,Week 4,3
SYN-2026-01,VS,SYN-2026-01-SITE-102-104,13,PULSE,Pulse Rate,57,beats/min,57,beats/min,2025-12-26,Week 4,3
SYN-2026-01,VS,SYN-2026-01-SITE-102-104,14,TEMP,Temperature,36.7,C,36.7,C,2025-12-26,Week 4,3
SYN-2026-01,VS,SYN-2026-01-SITE-102-104,15,WEIGHT,Weight,48.9,kg,48.9,kg,2025-12-26,Week 4,3
SYN-2026-01,VS,SYN-2026-01-SITE-102-104,16,SYSBP,Systolic Blood Pressure,124,mmHg,124,mmHg,2026-02-21,Week 12,4
SYN-2026-01,VS,SYN-2026-01-SITE-102-104,17,DIABP,Diastolic Blood Pressure,97,mmHg,97,mmHg,2026-02-21,Week 12,4
SYN-2026-01,VS,SYN-2026-01-SITE-102-104,18,PULSE,Pulse Rate,78,beats/min,78,beats/min,2026-02-21,Week 12,4
SYN-2026-01,VS,SYN-2026-01-SITE-102-104,19,TEMP,Temperature,36.6,C,36.6,C,2026-02-21,Week 12,4
SYN-2026-01,VS,SYN-2026-01-SITE-102-104,20,WEIGHT,Weight,54.7,kg,54.7,kg,2026-02-21,Week 12,4
SYN-2026-01,VS,SYN-2026-01-SITE-102-104,21,SYSBP,Systolic Blood Pressure,142,mmHg,142,mmHg,2026-05-11,End of study,5
SYN-2026-01,VS,SYN-2026-01-SITE-102-104,22,DIABP,Diastolic Blood Pressure,71,mmHg,71,mmHg,2026-05-11,End of study,5
SYN-2026-01,VS,SYN-2026-01-SITE-102-104,23,PULSE,Pulse Rate,87,beats/min,87,beats/min,2026-05-11,End of study,5
SYN-2026-01,VS,SYN-2026-01-SITE-102-104,24,TEMP,Temperature,36.5,C,36.5,C,2026-05-11,End of study,5
SYN-2026-01,VS,SYN-2026-01-SITE-102-104,25,WEIGHT,Weight,102.0,kg,102.0,kg,2026-05-11,End of study,5
SYN-2026-01,VS,SYN-2026-01-SITE-102-105,1,SYSBP,Systolic Blood Pressure,132,mmHg,132,mmHg,2026-02-20,Screening,1
SYN-2026-01,VS,SYN-2026-01-SITE-102-105,2,DIABP,Diastolic Blood Pressure,90,mmHg,90,mmHg,2026-02-20,Screening,1
SYN-2026-01,VS,SYN-2026-01-SITE-102-105,3,PULSE,Pulse Rate,66,beats/min,66,beats/min,2026-02-20,Screening,1
SYN-2026-01,VS,SYN-2026-01-SITE-102-105,4,WEIGHT,Weight,61.4,kg,61.4,kg,2026-02-20,Screening,1
SYN-2026-01,VS,SYN-2026-01-SITE-102-105,5,SYSBP,Systolic Blood Pressure,131,mmHg,131,mmHg,2026-03-08,Baseline / Day 1,2
SYN-2026-01,VS,SYN-2026-01-SITE-102-105,6,DIABP,Diastolic Blood Pressure,77,mmHg,77,mmHg,2026-03-08,Baseline / Day 1,2
SYN-2026-01,VS,SYN-2026-01-SITE-102-105,7,PULSE,Pulse Rate,73,beats/min,73,beats/min,2026-03-08,Baseline / Day 1,2
SYN-2026-01,VS,SYN-2026-01-SITE-102-105,8,TEMP,Temperature,37.1,C,37.1,C,2026-03-08,Baseline / Day 1,2
SYN-2026-01,VS,SYN-2026-01-SITE-102-105,9,WEIGHT,Weight,95.2,kg,95.2,kg,2026-03-08,Baseline / Day 1,2
SYN-2026-01,VS,SYN-2026-01-SITE-102-105,10,SYSBP,Systolic Blood Pressure,135,mmHg,135,mmHg,2026-04-05,Week 4,3
SYN-2026-01,VS,SYN-2026-01-SITE-102-105,11,DIABP,Diastolic Blood Pressure,81,mmHg,81,mmHg,2026-04-05,Week 4,3
SYN-2026-01,VS,SYN-2026-01-SITE-102-105,12,PULSE,Pulse Rate,67,beats/min,67,beats/min,2026-04-05,Week 4,3
SYN-2026-01,VS,SYN-2026-01-SITE-102-105,13,TEMP,Temperature,36.7,C,36.7,C,2026-04-05,Week 4,3
SYN-2026-01,VS,SYN-2026-01-SITE-102-105,14,WEIGHT,Weight,98.9,kg,98.9,kg,2026-04-05,Week 4,3
SYN-2026-01,VS,SYN-2026-01-SITE-102-105,15,SYSBP,Systolic Blood Pressure,141,mmHg,141,mmHg,2026-05-27,Week 12,4
SYN-2026-01,VS,SYN-2026-01-SITE-102-105,16,DIABP,Diastolic Blood Pressure,85,mmHg,85,mmHg,2026-05-27,Week 12,4
SYN-2026-01,VS,SYN-2026-01-SITE-102-105,17,PULSE,Pulse Rate,60,beats/min,60,beats/min,2026-05-27,Week 12,4
SYN-2026-01,VS,SYN-2026-01-SITE-102-105,18,TEMP,Temperature,36.7,C,36.7,C,2026-05-27,Week 12,4
SYN-2026-01,VS,SYN-2026-01-SITE-102-105,19,WEIGHT,Weight,59.6,kg,59.6,kg,2026-05-27,Week 12,4
SYN-2026-01,VS,SYN-2026-01-SITE-102-105,20,SYSBP,Systolic Blood Pressure,138,mmHg,138,mmHg,2026-08-28,End of study,5
SYN-2026-01,VS,SYN-2026-01-SITE-102-105,21,DIABP,Diastolic Blood Pressure,77,mmHg,77,mmHg,2026-08-28,End of study,5
SYN-2026-01,VS,SYN-2026-01-SITE-102-105,22,PULSE,Pulse Rate,95,beats/min,95,beats/min,2026-08-28,End of study,5
SYN-2026-01,VS,SYN-2026-01-SITE-102-105,23,WEIGHT,Weight,83.1,kg,83.1,kg,2026-08-28,End of study,5
SYN-2026-01,VS,SYN-2026-01-SITE-102-106,1,SYSBP,Systolic Blood Pressure,122,mmHg,122,mmHg,2026-01-26,Screening,1
SYN-2026-01,VS,SYN-2026-01-SITE-102-106,2,DIABP,Diastolic Blood Pressure,62,mmHg,62,mmHg,2026-01-26,Screening,1
SYN-2026-01,VS,SYN-2026-01-SITE-102-106,3,PULSE,Pulse Rate,64,beats/min,64,beats/min,2026-01-26,Screening,1
SYN-2026-01,VS,SYN-2026-01-SITE-102-106,4,TEMP,Temperature,36.5,C,36.5,C,2026-01-26,Screening,1
SYN-2026-01,VS,SYN-2026-01-SITE-102-106,5,WEIGHT,Weight,94.1,kg,94.1,kg,2026-01-26,Screening,1
SYN-2026-01,VS,SYN-2026-01-SITE-102-106,6,SYSBP,Systolic Blood Pressure,147,mmHg,147,mmHg,2026-02-13,Baseline / Day 1,2
SYN-2026-01,VS,SYN-2026-01-SITE-102-106,7,DIABP,Diastolic Blood Pressure,76,mmHg,76,mmHg,2026-02-13,Baseline / Day 1,2
SYN-2026-01,VS,SYN-2026-01-SITE-102-106,8,PULSE,Pulse Rate,73,beats/min,73,beats/min,2026-02-13,Baseline / Day 1,2
SYN-2026-01,VS,SYN-2026-01-SITE-102-106,9,WEIGHT,Weight,84.6,kg,84.6,kg,2026-02-13,Baseline / Day 1,2
SYN-2026-01,VS,SYN-2026-01-SITE-102-106,10,SYSBP,Systolic Blood Pressure,107,mmHg,107,mmHg,2026-03-09,Week 4,3
SYN-2026-01,VS,SYN-2026-01-SITE-102-106,11,DIABP,Diastolic Blood Pressure,94,mmHg,94,mmHg,2026-03-09,Week 4,3
SYN-2026-01,VS,SYN-2026-01-SITE-102-106,12,PULSE,Pulse Rate,71,beats/min,71,beats/min,2026-03-09,Week 4,3
SYN-2026-01,VS,SYN-2026-01-SITE-102-106,13,TEMP,Temperature,36.7,C,36.7,C,2026-03-09,Week 4,3
SYN-2026-01,VS,SYN-2026-01-SITE-102-106,14,WEIGHT,Weight,87.9,kg,87.9,kg,2026-03-09,Week 4,3
SYN-2026-01,VS,SYN-2026-01-SITE-102-108,1,SYSBP,Systolic Blood Pressure,103,mmHg,103,mmHg,2026-03-12,Screening,1
SYN-2026-01,VS,SYN-2026-01-SITE-102-108,2,DIABP,Diastolic Blood Pressure,86,mmHg,86,mmHg,2026-03-12,Screening,1
SYN-2026-01,VS,SYN-2026-01-SITE-102-108,3,PULSE,Pulse Rate,96,beats/min,96,beats/min,2026-03-12,Screening,1
SYN-2026-01,VS,SYN-2026-01-SITE-102-108,4,TEMP,Temperature,37.1,C,37.1,C,2026-03-12,Screening,1
SYN-2026-01,VS,SYN-2026-01-SITE-102-108,5,WEIGHT,Weight,61.0,kg,61.0,kg,2026-03-12,Screening,1
SYN-2026-01,VS,SYN-2026-01-SITE-102-108,6,SYSBP,Systolic Blood Pressure,114,mmHg,114,mmHg,2026-03-22,Baseline / Day 1,2
SYN-2026-01,VS,SYN-2026-01-SITE-102-108,7,DIABP,Diastolic Blood Pressure,74,mmHg,74,mmHg,2026-03-22,Baseline / Day 1,2
SYN-2026-01,VS,SYN-2026-01-SITE-102-108,8,PULSE,Pulse Rate,76,beats/min,76,beats/min,2026-03-22,Baseline / Day 1,2
SYN-2026-01,VS,SYN-2026-01-SITE-102-108,9,TEMP,Temperature,36.4,C,36.4,C,2026-03-22,Baseline / Day 1,2
SYN-2026-01,VS,SYN-2026-01-SITE-102-108,10,WEIGHT,Weight,84.8,kg,84.8,kg,2026-03-22,Baseline / Day 1,2
SYN-2026-01,VS,SYN-2026-01-SITE-102-108,11,SYSBP,Systolic Blood Pressure,116,mmHg,116,mmHg,2026-04-17,Week 4,3
SYN-2026-01,VS,SYN-2026-01-SITE-102-108,12,DIABP,Diastolic Blood Pressure,86,mmHg,86,mmHg,2026-04-17,Week 4,3
SYN-2026-01,VS,SYN-2026-01-SITE-102-108,13,PULSE,Pulse Rate,94,beats/min,94,beats/min,2026-04-17,Week 4,3
SYN-2026-01,VS,SYN-2026-01-SITE-102-108,14,TEMP,Temperature,37.0,C,37.0,C,2026-04-17,Week 4,3
SYN-2026-01,VS,SYN-2026-01-SITE-102-108,15,WEIGHT,Weight,62.3,kg,62.3,kg,2026-04-17,Week 4,3
SYN-2026-01,VS,SYN-2026-01-SITE-102-108,16,SYSBP,Systolic Blood Pressure,135,mmHg,135,mmHg,2026-06-15,Week 12,4
SYN-2026-01,VS,SYN-2026-01-SITE-102-108,17,DIABP,Diastolic Blood Pressure,84,mmHg,84,mmHg,2026-06-15,Week 12,4
SYN-2026-01,VS,SYN-2026-01-SITE-102-108,18,PULSE,Pulse Rate,64,beats/min,64,beats/min,2026-06-15,Week 12,4
SYN-2026-01,VS,SYN-2026-01-SITE-102-108,19,TEMP,Temperature,36.6,C,36.6,C,2026-06-15,Week 12,4
SYN-2026-01,VS,SYN-2026-01-SITE-102-108,20,WEIGHT,Weight,60.9,kg,60.9,kg,2026-06-15,Week 12,4
SYN-2026-01,VS,SYN-2026-01-SITE-102-113,1,SYSBP,Systolic Blood Pressure,124,mmHg,124,mmHg,2026-03-05,Screening,1
SYN-2026-01,VS,SYN-2026-01-SITE-102-113,2,DIABP,Diastolic Blood Pressure,86,mmHg,86,mmHg,2026-03-05,Screening,1
SYN-2026-01,VS,SYN-2026-01-SITE-102-113,3,PULSE,Pulse Rate,72,beats/min,72,beats/min,2026-03-05,Screening,1
SYN-2026-01,VS,SYN-2026-01-SITE-102-113,4,TEMP,Temperature,37.0,C,37.0,C,2026-03-05,Screening,1
SYN-2026-01,VS,SYN-2026-01-SITE-102-113,5,WEIGHT,Weight,96.8,kg,96.8,kg,2026-03-05,Screening,1
SYN-2026-01,VS,SYN-2026-01-SITE-102-113,6,SYSBP,Systolic Blood Pressure,137,mmHg,137,mmHg,2026-03-17,Baseline / Day 1,2
SYN-2026-01,VS,SYN-2026-01-SITE-102-113,7,DIABP,Diastolic Blood Pressure,71,mmHg,71,mmHg,2026-03-17,Baseline / Day 1,2
SYN-2026-01,VS,SYN-2026-01-SITE-102-113,8,PULSE,Pulse Rate,83,beats/min,83,beats/min,2026-03-17,Baseline / Day 1,2
SYN-2026-01,VS,SYN-2026-01-SITE-102-113,9,TEMP,Temperature,36.0,C,36.0,C,2026-03-17,Baseline / Day 1,2
SYN-2026-01,VS,SYN-2026-01-SITE-102-113,10,WEIGHT,Weight,65.9,kg,65.9,kg,2026-03-17,Baseline / Day 1,2
SYN-2026-01,VS,SYN-2026-01-SITE-102-113,11,SYSBP,Systolic Blood Pressure,137,mmHg,137,mmHg,2026-04-14,Week 4,3
SYN-2026-01,VS,SYN-2026-01-SITE-102-113,12,DIABP,Diastolic Blood Pressure,78,mmHg,78,mmHg,2026-04-14,Week 4,3
SYN-2026-01,VS,SYN-2026-01-SITE-102-113,13,PULSE,Pulse Rate,79,beats/min,79,beats/min,2026-04-14,Week 4,3
SYN-2026-01,VS,SYN-2026-01-SITE-102-113,14,WEIGHT,Weight,80.5,kg,80.5,kg,2026-04-14,Week 4,3
SYN-2026-01,VS,SYN-2026-01-SITE-102-113,15,SYSBP,Systolic Blood Pressure,129,mmHg,129,mmHg,2026-06-05,Week 12,4
SYN-2026-01,VS,SYN-2026-01-SITE-102-113,16,DIABP,Diastolic Blood Pressure,79,mmHg,79,mmHg,2026-06-05,Week 12,4
SYN-2026-01,VS,SYN-2026-01-SITE-102-113,17,PULSE,Pulse Rate,83,beats/min,83,beats/min,2026-06-05,Week 12,4
SYN-2026-01,VS,SYN-2026-01-SITE-102-113,18,TEMP,Temperature,37.1,C,37.1,C,2026-06-05,Week 12,4
SYN-2026-01,VS,SYN-2026-01-SITE-102-113,19,WEIGHT,Weight,42.3,kg,42.3,kg,2026-06-05,Week 12,4
SYN-2026-01,VS,SYN-2026-01-SITE-102-113,20,SYSBP,Systolic Blood Pressure,120,mmHg,120,mmHg,2026-09-05,End of study,5
SYN-2026-01,VS,SYN-2026-01-SITE-102-113,21,DIABP,Diastolic Blood Pressure,65,mmHg,65,mmHg,2026-09-05,End of study,5
SYN-2026-01,VS,SYN-2026-01-SITE-102-113,22,PULSE,Pulse Rate,49,beats/min,49,beats/min,2026-09-05,End of study,5
SYN-2026-01,VS,SYN-2026-01-SITE-102-113,23,TEMP,Temperature,36.3,C,36.3,C,2026-09-05,End of study,5
SYN-2026-01,VS,SYN-2026-01-SITE-102-113,24,WEIGHT,Weight,94.0,kg,94.0,kg,2026-09-05,End of study,5
SYN-2026-01,VS,SYN-2026-01-SITE-102-114,1,SYSBP,Systolic Blood Pressure,135,mmHg,135,mmHg,2025-12-26,Screening,1
SYN-2026-01,VS,SYN-2026-01-SITE-102-114,2,DIABP,Diastolic Blood Pressure,78,mmHg,78,mmHg,2025-12-26,Screening,1
SYN-2026-01,VS,SYN-2026-01-SITE-102-114,3,PULSE,Pulse Rate,81,beats/min,81,beats/min,2025-12-26,Screening,1
SYN-2026-01,VS,SYN-2026-01-SITE-102-114,4,TEMP,Temperature,36.3,C,36.3,C,2025-12-26,Screening,1
SYN-2026-01,VS,SYN-2026-01-SITE-102-114,5,WEIGHT,Weight,42.0,kg,42.0,kg,2025-12-26,Screening,1
SYN-2026-01,VS,SYN-2026-01-SITE-102-114,6,SYSBP,Systolic Blood Pressure,109,mmHg,109,mmHg,2026-01-12,Baseline / Day 1,2
SYN-2026-01,VS,SYN-2026-01-SITE-102-114,7,DIABP,Diastolic Blood Pressure,80,mmHg,80,mmHg,2026-01-12,Baseline / Day 1,2
SYN-2026-01,VS,SYN-2026-01-SITE-102-114,8,PULSE,Pulse Rate,79,beats/min,79,beats/min,2026-01-12,Baseline / Day 1,2
SYN-2026-01,VS,SYN-2026-01-SITE-102-114,9,WEIGHT,Weight,62.6,kg,62.6,kg,2026-01-12,Baseline / Day 1,2
SYN-2026-01,VS,SYN-2026-01-SITE-102-114,10,SYSBP,Systolic Blood Pressure,139,mmHg,139,mmHg,2026-02-06,Week 4,3
SYN-2026-01,VS,SYN-2026-01-SITE-102-114,11,DIABP,Diastolic Blood Pressure,71,mmHg,71,mmHg,2026-02-06,Week 4,3
SYN-2026-01,VS,SYN-2026-01-SITE-102-114,12,PULSE,Pulse Rate,64,beats/min,64,beats/min,2026-02-06,Week 4,3
SYN-2026-01,VS,SYN-2026-01-SITE-102-114,13,TEMP,Temperature,36.4,C,36.4,C,2026-02-06,Week 4,3
SYN-2026-01,VS,SYN-2026-01-SITE-102-114,14,WEIGHT,Weight,71.9,kg,71.9,kg,2026-02-06,Week 4,3
SYN-2026-01,VS,SYN-2026-01-SITE-102-114,15,SYSBP,Systolic Blood Pressure,111,mmHg,111,mmHg,2026-04-05,Week 12,4
SYN-2026-01,VS,SYN-2026-01-SITE-102-114,16,DIABP,Diastolic Blood Pressure,71,mmHg,71,mmHg,2026-04-05,Week 12,4
SYN-2026-01,VS,SYN-2026-01-SITE-102-114,17,PULSE,Pulse Rate,74,beats/min,74,beats/min,2026-04-05,Week 12,4
SYN-2026-01,VS,SYN-2026-01-SITE-102-114,18,TEMP,Temperature,36.7,C,36.7,C,2026-04-05,Week 12,4
SYN-2026-01,VS,SYN-2026-01-SITE-102-114,19,WEIGHT,Weight,60.9,kg,60.9,kg,2026-04-05,Week 12,4
SYN-2026-01,VS,SYN-2026-01-SITE-102-114,20,SYSBP,Systolic Blood Pressure,119,mmHg,119,mmHg,2026-06-25,End of study,5
SYN-2026-01,VS,SYN-2026-01-SITE-102-114,21,DIABP,Diastolic Blood Pressure,90,mmHg,90,mmHg,2026-06-25,End of study,5
SYN-2026-01,VS,SYN-2026-01-SITE-102-114,22,PULSE,Pulse Rate,69,beats/min,69,beats/min,2026-06-25,End of study,5
SYN-2026-01,VS,SYN-2026-01-SITE-102-114,23,TEMP,Temperature,36.6,C,36.6,C,2026-06-25,End of study,5
SYN-2026-01,VS,SYN-2026-01-SITE-102-114,24,WEIGHT,Weight,86.8,kg,86.8,kg,2026-06-25,End of study,5
SYN-2026-01,VS,SYN-2026-01-SITE-102-116,1,SYSBP,Systolic Blood Pressure,138,mmHg,138,mmHg,2025-10-09,Screening,1
SYN-2026-01,VS,SYN-2026-01-SITE-102-116,2,DIABP,Diastolic Blood Pressure,87,mmHg,87,mmHg,2025-10-09,Screening,1
SYN-2026-01,VS,SYN-2026-01-SITE-102-116,3,PULSE,Pulse Rate,70,beats/min,70,beats/min,2025-10-09,Screening,1
SYN-2026-01,VS,SYN-2026-01-SITE-102-116,4,TEMP,Temperature,36.6,C,36.6,C,2025-10-09,Screening,1
SYN-2026-01,VS,SYN-2026-01-SITE-102-116,5,WEIGHT,Weight,78.3,kg,78.3,kg,2025-10-09,Screening,1
SYN-2026-01,VS,SYN-2026-01-SITE-102-116,6,SYSBP,Systolic Blood Pressure,123,mmHg,123,mmHg,2025-10-27,Baseline / Day 1,2
SYN-2026-01,VS,SYN-2026-01-SITE-102-116,7,DIABP,Diastolic Blood Pressure,88,mmHg,88,mmHg,2025-10-27,Baseline / Day 1,2
SYN-2026-01,VS,SYN-2026-01-SITE-102-116,8,PULSE,Pulse Rate,74,beats/min,74,beats/min,2025-10-27,Baseline / Day 1,2
SYN-2026-01,VS,SYN-2026-01-SITE-102-116,9,TEMP,Temperature,36.3,C,36.3,C,2025-10-27,Baseline / Day 1,2
SYN-2026-01,VS,SYN-2026-01-SITE-102-116,10,WEIGHT,Weight,64.1,kg,64.1,kg,2025-10-27,Baseline / Day 1,2
SYN-2026-01,VS,SYN-2026-01-SITE-102-116,11,SYSBP,Systolic Blood Pressure,114,mmHg,114,mmHg,2025-11-21,Week 4,3
SYN-2026-01,VS,SYN-2026-01-SITE-102-116,12,DIABP,Diastolic Blood Pressure,77,mmHg,77,mmHg,2025-11-21,Week 4,3
SYN-2026-01,VS,SYN-2026-01-SITE-102-116,13,PULSE,Pulse Rate,104,beats/min,104,beats/min,2025-11-21,Week 4,3
SYN-2026-01,VS,SYN-2026-01-SITE-102-116,14,TEMP,Temperature,37.1,C,37.1,C,2025-11-21,Week 4,3
SYN-2026-01,VS,SYN-2026-01-SITE-102-116,15,WEIGHT,Weight,75.0,kg,75.0,kg,2025-11-21,Week 4,3
SYN-2026-01,VS,SYN-2026-01-SITE-102-116,16,SYSBP,Systolic Blood Pressure,130,mmHg,130,mmHg,2026-01-20,Week 12,4
SYN-2026-01,VS,SYN-2026-01-SITE-102-116,17,DIABP,Diastolic Blood Pressure,65,mmHg,65,mmHg,2026-01-20,Week 12,4
SYN-2026-01,VS,SYN-2026-01-SITE-102-116,18,PULSE,Pulse Rate,66,beats/min,66,beats/min,2026-01-20,Week 12,4
SYN-2026-01,VS,SYN-2026-01-SITE-102-116,19,TEMP,Temperature,36.4,C,36.4,C,2026-01-20,Week 12,4
SYN-2026-01,VS,SYN-2026-01-SITE-102-116,20,WEIGHT,Weight,67.5,kg,67.5,kg,2026-01-20,Week 12,4
SYN-2026-01,VS,SYN-2026-01-SITE-102-116,21,SYSBP,Systolic Blood Pressure,129,mmHg,129,mmHg,2026-04-06,End of study,5
SYN-2026-01,VS,SYN-2026-01-SITE-102-116,22,DIABP,Diastolic Blood Pressure,84,mmHg,84,mmHg,2026-04-06,End of study,5
SYN-2026-01,VS,SYN-2026-01-SITE-102-116,23,PULSE,Pulse Rate,75,beats/min,75,beats/min,2026-04-06,End of study,5
SYN-2026-01,VS,SYN-2026-01-SITE-102-116,24,TEMP,Temperature,36.8,C,36.8,C,2026-04-06,End of study,5
SYN-2026-01,VS,SYN-2026-01-SITE-102-116,25,WEIGHT,Weight,79.5,kg,79.5,kg,2026-04-06,End of study,5
SYN-2026-01,VS,SYN-2026-01-SITE-102-119,1,SYSBP,Systolic Blood Pressure,144,mmHg,144,mmHg,2026-03-08,Screening,1
SYN-2026-01,VS,SYN-2026-01-SITE-102-119,2,DIABP,Diastolic Blood Pressure,90,mmHg,90,mmHg,2026-03-08,Screening,1
SYN-2026-01,VS,SYN-2026-01-SITE-102-119,3,PULSE,Pulse Rate,92,beats/min,92,beats/min,2026-03-08,Screening,1
SYN-2026-01,VS,SYN-2026-01-SITE-102-119,4,TEMP,Temperature,36.4,C,36.4,C,2026-03-08,Screening,1
SYN-2026-01,VS,SYN-2026-01-SITE-102-119,5,WEIGHT,Weight,44.9,kg,44.9,kg,2026-03-08,Screening,1
SYN-2026-01,VS,SYN-2026-01-SITE-102-119,6,SYSBP,Systolic Blood Pressure,136,mmHg,136,mmHg,2026-03-30,Baseline / Day 1,2
SYN-2026-01,VS,SYN-2026-01-SITE-102-119,7,DIABP,Diastolic Blood Pressure,72,mmHg,72,mmHg,2026-03-30,Baseline / Day 1,2
SYN-2026-01,VS,SYN-2026-01-SITE-102-119,8,PULSE,Pulse Rate,73,beats/min,73,beats/min,2026-03-30,Baseline / Day 1,2
SYN-2026-01,VS,SYN-2026-01-SITE-102-119,9,TEMP,Temperature,36.8,C,36.8,C,2026-03-30,Baseline / Day 1,2
SYN-2026-01,VS,SYN-2026-01-SITE-102-119,10,WEIGHT,Weight,66.8,kg,66.8,kg,2026-03-30,Baseline / Day 1,2
SYN-2026-01,VS,SYN-2026-01-SITE-102-119,11,SYSBP,Systolic Blood Pressure,97,mmHg,97,mmHg,2026-04-28,Week 4,3
SYN-2026-01,VS,SYN-2026-01-SITE-102-119,12,DIABP,Diastolic Blood Pressure,69,mmHg,69,mmHg,2026-04-28,Week 4,3
SYN-2026-01,VS,SYN-2026-01-SITE-102-119,13,PULSE,Pulse Rate,82,beats/min,82,beats/min,2026-04-28,Week 4,3
SYN-2026-01,VS,SYN-2026-01-SITE-102-119,14,TEMP,Temperature,36.6,C,36.6,C,2026-04-28,Week 4,3
SYN-2026-01,VS,SYN-2026-01-SITE-102-119,15,WEIGHT,Weight,73.6,kg,73.6,kg,2026-04-28,Week 4,3
SYN-2026-01,VS,SYN-2026-01-SITE-102-119,16,SYSBP,Systolic Blood Pressure,136,mmHg,136,mmHg,2026-06-19,Week 12,4
SYN-2026-01,VS,SYN-2026-01-SITE-102-119,17,DIABP,Diastolic Blood Pressure,72,mmHg,72,mmHg,2026-06-19,Week 12,4
SYN-2026-01,VS,SYN-2026-01-SITE-102-119,18,PULSE,Pulse Rate,63,beats/min,63,beats/min,2026-06-19,Week 12,4
SYN-2026-01,VS,SYN-2026-01-SITE-102-119,19,TEMP,Temperature,36.1,C,36.1,C,2026-06-19,Week 12,4
SYN-2026-01,VS,SYN-2026-01-SITE-102-119,20,WEIGHT,Weight,97.4,kg,97.4,kg,2026-06-19,Week 12,4
SYN-2026-01,VS,SYN-2026-01-SITE-102-119,21,SYSBP,Systolic Blood Pressure,127,mmHg,127,mmHg,2026-09-06,End of study,5
SYN-2026-01,VS,SYN-2026-01-SITE-102-119,22,DIABP,Diastolic Blood Pressure,78,mmHg,78,mmHg,2026-09-06,End of study,5
SYN-2026-01,VS,SYN-2026-01-SITE-102-119,23,PULSE,Pulse Rate,61,beats/min,61,beats/min,2026-09-06,End of study,5
SYN-2026-01,VS,SYN-2026-01-SITE-102-119,24,TEMP,Temperature,37.3,C,37.3,C,2026-09-06,End of study,5
SYN-2026-01,VS,SYN-2026-01-SITE-102-119,25,WEIGHT,Weight,72.5,kg,72.5,kg,2026-09-06,End of study,5
SYN-2026-01,VS,SYN-2026-01-SITE-103-002,1,SYSBP,Systolic Blood Pressure,116,mmHg,116,mmHg,2026-01-15,Screening,1
SYN-2026-01,VS,SYN-2026-01-SITE-103-002,2,DIABP,Diastolic Blood Pressure,68,mmHg,68,mmHg,2026-01-15,Screening,1
SYN-2026-01,VS,SYN-2026-01-SITE-103-002,3,PULSE,Pulse Rate,74,beats/min,74,beats/min,2026-01-15,Screening,1
SYN-2026-01,VS,SYN-2026-01-SITE-103-002,4,TEMP,Temperature,36.6,C,36.6,C,2026-01-15,Screening,1
SYN-2026-01,VS,SYN-2026-01-SITE-103-002,5,WEIGHT,Weight,89.2,kg,89.2,kg,2026-01-15,Screening,1
SYN-2026-01,VS,SYN-2026-01-SITE-103-002,6,SYSBP,Systolic Blood Pressure,121,mmHg,121,mmHg,2026-02-02,Baseline / Day 1,2
SYN-2026-01,VS,SYN-2026-01-SITE-103-002,7,DIABP,Diastolic Blood Pressure,73,mmHg,73,mmHg,2026-02-02,Baseline / Day 1,2
SYN-2026-01,VS,SYN-2026-01-SITE-103-002,8,PULSE,Pulse Rate,57,beats/min,57,beats/min,2026-02-02,Baseline / Day 1,2
SYN-2026-01,VS,SYN-2026-01-SITE-103-002,9,TEMP,Temperature,37.0,C,37.0,C,2026-02-02,Baseline / Day 1,2
SYN-2026-01,VS,SYN-2026-01-SITE-103-002,10,WEIGHT,Weight,55.5,kg,55.5,kg,2026-02-02,Baseline / Day 1,2
SYN-2026-01,VS,SYN-2026-01-SITE-103-002,11,SYSBP,Systolic Blood Pressure,127,mmHg,127,mmHg,2026-03-02,Week 4,3
SYN-2026-01,VS,SYN-2026-01-SITE-103-002,12,DIABP,Diastolic Blood Pressure,86,mmHg,86,mmHg,2026-03-02,Week 4,3
SYN-2026-01,VS,SYN-2026-01-SITE-103-002,13,PULSE,Pulse Rate,71,beats/min,71,beats/min,2026-03-02,Week 4,3
SYN-2026-01,VS,SYN-2026-01-SITE-103-002,14,TEMP,Temperature,36.8,C,36.8,C,2026-03-02,Week 4,3
SYN-2026-01,VS,SYN-2026-01-SITE-103-002,15,WEIGHT,Weight,88.8,kg,88.8,kg,2026-03-02,Week 4,3
SYN-2026-01,VS,SYN-2026-01-SITE-103-002,16,SYSBP,Systolic Blood Pressure,142,mmHg,142,mmHg,2026-04-30,Week 12,4
SYN-2026-01,VS,SYN-2026-01-SITE-103-002,17,DIABP,Diastolic Blood Pressure,85,mmHg,85,mmHg,2026-04-30,Week 12,4
SYN-2026-01,VS,SYN-2026-01-SITE-103-002,18,PULSE,Pulse Rate,87,beats/min,87,beats/min,2026-04-30,Week 12,4
SYN-2026-01,VS,SYN-2026-01-SITE-103-002,19,TEMP,Temperature,37.3,C,37.3,C,2026-04-30,Week 12,4
SYN-2026-01,VS,SYN-2026-01-SITE-103-002,20,WEIGHT,Weight,90.8,kg,90.8,kg,2026-04-30,Week 12,4
SYN-2026-01,VS,SYN-2026-01-SITE-103-002,21,SYSBP,Systolic Blood Pressure,137,mmHg,137,mmHg,2026-07-13,End of study,5
SYN-2026-01,VS,SYN-2026-01-SITE-103-002,22,DIABP,Diastolic Blood Pressure,68,mmHg,68,mmHg,2026-07-13,End of study,5
SYN-2026-01,VS,SYN-2026-01-SITE-103-002,23,PULSE,Pulse Rate,74,beats/min,74,beats/min,2026-07-13,End of study,5
SYN-2026-01,VS,SYN-2026-01-SITE-103-002,24,TEMP,Temperature,36.4,C,36.4,C,2026-07-13,End of study,5
SYN-2026-01,VS,SYN-2026-01-SITE-103-002,25,WEIGHT,Weight,64.1,kg,64.1,kg,2026-07-13,End of study,5
SYN-2026-01,VS,SYN-2026-01-SITE-103-005,1,SYSBP,Systolic Blood Pressure,117,mmHg,117,mmHg,2026-03-10,Screening,1
SYN-2026-01,VS,SYN-2026-01-SITE-103-005,2,DIABP,Diastolic Blood Pressure,104,mmHg,104,mmHg,2026-03-10,Screening,1
SYN-2026-01,VS,SYN-2026-01-SITE-103-005,3,PULSE,Pulse Rate,63,beats/min,63,beats/min,2026-03-10,Screening,1
SYN-2026-01,VS,SYN-2026-01-SITE-103-005,4,TEMP,Temperature,36.9,C,36.9,C,2026-03-10,Screening,1
SYN-2026-01,VS,SYN-2026-01-SITE-103-005,5,WEIGHT,Weight,68.8,kg,68.8,kg,2026-03-10,Screening,1
SYN-2026-01,VS,SYN-2026-01-SITE-103-005,6,SYSBP,Systolic Blood Pressure,133,mmHg,133,mmHg,2026-03-19,Baseline / Day 1,2
SYN-2026-01,VS,SYN-2026-01-SITE-103-005,7,DIABP,Diastolic Blood Pressure,68,mmHg,68,mmHg,2026-03-19,Baseline / Day 1,2
SYN-2026-01,VS,SYN-2026-01-SITE-103-005,8,PULSE,Pulse Rate,65,beats/min,65,beats/min,2026-03-19,Baseline / Day 1,2
SYN-2026-01,VS,SYN-2026-01-SITE-103-005,9,TEMP,Temperature,36.8,C,36.8,C,2026-03-19,Baseline / Day 1,2
SYN-2026-01,VS,SYN-2026-01-SITE-103-005,10,WEIGHT,Weight,81.1,kg,81.1,kg,2026-03-19,Baseline / Day 1,2
SYN-2026-01,VS,SYN-2026-01-SITE-103-005,11,SYSBP,Systolic Blood Pressure,119,mmHg,119,mmHg,2026-04-18,Week 4,3
SYN-2026-01,VS,SYN-2026-01-SITE-103-005,12,DIABP,Diastolic Blood Pressure,81,mmHg,81,mmHg,2026-04-18,Week 4,3
SYN-2026-01,VS,SYN-2026-01-SITE-103-005,13,PULSE,Pulse Rate,94,beats/min,94,beats/min,2026-04-18,Week 4,3
SYN-2026-01,VS,SYN-2026-01-SITE-103-005,14,TEMP,Temperature,35.9,C,35.9,C,2026-04-18,Week 4,3
SYN-2026-01,VS,SYN-2026-01-SITE-103-005,15,WEIGHT,Weight,65.3,kg,65.3,kg,2026-04-18,Week 4,3
SYN-2026-01,VS,SYN-2026-01-SITE-103-006,1,SYSBP,Systolic Blood Pressure,138,mmHg,138,mmHg,2026-02-04,Screening,1
SYN-2026-01,VS,SYN-2026-01-SITE-103-006,2,DIABP,Diastolic Blood Pressure,69,mmHg,69,mmHg,2026-02-04,Screening,1
SYN-2026-01,VS,SYN-2026-01-SITE-103-006,3,PULSE,Pulse Rate,77,beats/min,77,beats/min,2026-02-04,Screening,1
SYN-2026-01,VS,SYN-2026-01-SITE-103-006,4,TEMP,Temperature,37.6,C,37.6,C,2026-02-04,Screening,1
SYN-2026-01,VS,SYN-2026-01-SITE-103-006,5,WEIGHT,Weight,75.4,kg,75.4,kg,2026-02-04,Screening,1
SYN-2026-01,VS,SYN-2026-01-SITE-103-006,6,SYSBP,Systolic Blood Pressure,116,mmHg,116,mmHg,2026-02-18,Baseline / Day 1,2
SYN-2026-01,VS,SYN-2026-01-SITE-103-006,7,DIABP,Diastolic Blood Pressure,77,mmHg,77,mmHg,2026-02-18,Baseline / Day 1,2
SYN-2026-01,VS,SYN-2026-01-SITE-103-006,8,PULSE,Pulse Rate,85,beats/min,85,beats/min,2026-02-18,Baseline / Day 1,2
SYN-2026-01,VS,SYN-2026-01-SITE-103-006,9,WEIGHT,Weight,86.2,kg,86.2,kg,2026-02-18,Baseline / Day 1,2
SYN-2026-01,VS,SYN-2026-01-SITE-103-006,10,SYSBP,Systolic Blood Pressure,128,mmHg,128,mmHg,2026-03-18,Week 4,3
SYN-2026-01,VS,SYN-2026-01-SITE-103-006,11,DIABP,Diastolic Blood Pressure,80,mmHg,80,mmHg,2026-03-18,Week 4,3
SYN-2026-01,VS,SYN-2026-01-SITE-103-006,12,PULSE,Pulse Rate,69,beats/min,69,beats/min,2026-03-18,Week 4,3
SYN-2026-01,VS,SYN-2026-01-SITE-103-006,13,TEMP,Temperature,36.0,C,36.0,C,2026-03-18,Week 4,3
SYN-2026-01,VS,SYN-2026-01-SITE-103-006,14,WEIGHT,Weight,61.4,kg,61.4,kg,2026-03-18,Week 4,3
SYN-2026-01,VS,SYN-2026-01-SITE-103-006,15,SYSBP,Systolic Blood Pressure,132,mmHg,132,mmHg,2026-05-14,Week 12,4
SYN-2026-01,VS,SYN-2026-01-SITE-103-006,16,DIABP,Diastolic Blood Pressure,75,mmHg,75,mmHg,2026-05-14,Week 12,4
SYN-2026-01,VS,SYN-2026-01-SITE-103-006,17,PULSE,Pulse Rate,81,beats/min,81,beats/min,2026-05-14,Week 12,4
SYN-2026-01,VS,SYN-2026-01-SITE-103-006,18,TEMP,Temperature,36.4,C,36.4,C,2026-05-14,Week 12,4
SYN-2026-01,VS,SYN-2026-01-SITE-103-006,19,WEIGHT,Weight,62.2,kg,62.2,kg,2026-05-14,Week 12,4
SYN-2026-01,VS,SYN-2026-01-SITE-103-006,20,SYSBP,Systolic Blood Pressure,115,mmHg,115,mmHg,2026-08-06,End of study,5
SYN-2026-01,VS,SYN-2026-01-SITE-103-006,21,DIABP,Diastolic Blood Pressure,88,mmHg,88,mmHg,2026-08-06,End of study,5
SYN-2026-01,VS,SYN-2026-01-SITE-103-006,22,PULSE,Pulse Rate,67,beats/min,67,beats/min,2026-08-06,End of study,5
SYN-2026-01,VS,SYN-2026-01-SITE-103-006,23,TEMP,Temperature,37.2,C,37.2,C,2026-08-06,End of study,5
SYN-2026-01,VS,SYN-2026-01-SITE-103-006,24,WEIGHT,Weight,82.7,kg,82.7,kg,2026-08-06,End of study,5
SYN-2026-01,VS,SYN-2026-01-SITE-103-009,1,SYSBP,Systolic Blood Pressure,116,mmHg,116,mmHg,2025-09-30,Screening,1
SYN-2026-01,VS,SYN-2026-01-SITE-103-009,2,DIABP,Diastolic Blood Pressure,87,mmHg,87,mmHg,2025-09-30,Screening,1
SYN-2026-01,VS,SYN-2026-01-SITE-103-009,3,PULSE,Pulse Rate,77,beats/min,77,beats/min,2025-09-30,Screening,1
SYN-2026-01,VS,SYN-2026-01-SITE-103-009,4,TEMP,Temperature,36.6,C,36.6,C,2025-09-30,Screening,1
SYN-2026-01,VS,SYN-2026-01-SITE-103-009,5,WEIGHT,Weight,77.0,kg,77.0,kg,2025-09-30,Screening,1
SYN-2026-01,VS,SYN-2026-01-SITE-103-009,6,SYSBP,Systolic Blood Pressure,127,mmHg,127,mmHg,2025-10-10,Baseline / Day 1,2
SYN-2026-01,VS,SYN-2026-01-SITE-103-009,7,DIABP,Diastolic Blood Pressure,78,mmHg,78,mmHg,2025-10-10,Baseline / Day 1,2
SYN-2026-01,VS,SYN-2026-01-SITE-103-009,8,PULSE,Pulse Rate,80,beats/min,80,beats/min,2025-10-10,Baseline / Day 1,2
SYN-2026-01,VS,SYN-2026-01-SITE-103-009,9,TEMP,Temperature,36.7,C,36.7,C,2025-10-10,Baseline / Day 1,2
SYN-2026-01,VS,SYN-2026-01-SITE-103-009,10,WEIGHT,Weight,94.4,kg,94.4,kg,2025-10-10,Baseline / Day 1,2
SYN-2026-01,VS,SYN-2026-01-SITE-103-009,11,SYSBP,Systolic Blood Pressure,131,mmHg,131,mmHg,2025-11-08,Week 4,3
SYN-2026-01,VS,SYN-2026-01-SITE-103-009,12,DIABP,Diastolic Blood Pressure,54,mmHg,54,mmHg,2025-11-08,Week 4,3
SYN-2026-01,VS,SYN-2026-01-SITE-103-009,13,PULSE,Pulse Rate,67,beats/min,67,beats/min,2025-11-08,Week 4,3
SYN-2026-01,VS,SYN-2026-01-SITE-103-009,14,TEMP,Temperature,36.9,C,36.9,C,2025-11-08,Week 4,3
SYN-2026-01,VS,SYN-2026-01-SITE-103-009,15,WEIGHT,Weight,82.2,kg,82.2,kg,2025-11-08,Week 4,3
SYN-2026-01,VS,SYN-2026-01-SITE-103-009,16,SYSBP,Systolic Blood Pressure,134,mmHg,134,mmHg,2025-12-28,Week 12,4
SYN-2026-01,VS,SYN-2026-01-SITE-103-009,17,DIABP,Diastolic Blood Pressure,79,mmHg,79,mmHg,2025-12-28,Week 12,4
SYN-2026-01,VS,SYN-2026-01-SITE-103-009,18,PULSE,Pulse Rate,72,beats/min,72,beats/min,2025-12-28,Week 12,4
SYN-2026-01,VS,SYN-2026-01-SITE-103-009,19,TEMP,Temperature,36.6,C,36.6,C,2025-12-28,Week 12,4
SYN-2026-01,VS,SYN-2026-01-SITE-103-009,20,WEIGHT,Weight,86.6,kg,86.6,kg,2025-12-28,Week 12,4
SYN-2026-01,VS,SYN-2026-01-SITE-103-009,21,SYSBP,Systolic Blood Pressure,142,mmHg,142,mmHg,2026-03-30,End of study,5
SYN-2026-01,VS,SYN-2026-01-SITE-103-009,22,DIABP,Diastolic Blood Pressure,81,mmHg,81,mmHg,2026-03-30,End of study,5
SYN-2026-01,VS,SYN-2026-01-SITE-103-009,23,PULSE,Pulse Rate,69,beats/min,69,beats/min,2026-03-30,End of study,5
SYN-2026-01,VS,SYN-2026-01-SITE-103-009,24,TEMP,Temperature,36.4,C,36.4,C,2026-03-30,End of study,5
SYN-2026-01,VS,SYN-2026-01-SITE-103-009,25,WEIGHT,Weight,72.9,kg,72.9,kg,2026-03-30,End of study,5
SYN-2026-01,VS,SYN-2026-01-SITE-103-021,1,SYSBP,Systolic Blood Pressure,123,mmHg,123,mmHg,2025-11-30,Screening,1
SYN-2026-01,VS,SYN-2026-01-SITE-103-021,2,DIABP,Diastolic Blood Pressure,78,mmHg,78,mmHg,2025-11-30,Screening,1
SYN-2026-01,VS,SYN-2026-01-SITE-103-021,3,PULSE,Pulse Rate,64,beats/min,64,beats/min,2025-11-30,Screening,1
SYN-2026-01,VS,SYN-2026-01-SITE-103-021,4,TEMP,Temperature,36.0,C,36.0,C,2025-11-30,Screening,1
SYN-2026-01,VS,SYN-2026-01-SITE-103-021,5,WEIGHT,Weight,65.5,kg,65.5,kg,2025-11-30,Screening,1
SYN-2026-01,VS,SYN-2026-01-SITE-103-021,6,SYSBP,Systolic Blood Pressure,139,mmHg,139,mmHg,2025-12-08,Baseline / Day 1,2
SYN-2026-01,VS,SYN-2026-01-SITE-103-021,7,DIABP,Diastolic Blood Pressure,76,mmHg,76,mmHg,2025-12-08,Baseline / Day 1,2
SYN-2026-01,VS,SYN-2026-01-SITE-103-021,8,PULSE,Pulse Rate,67,beats/min,67,beats/min,2025-12-08,Baseline / Day 1,2
SYN-2026-01,VS,SYN-2026-01-SITE-103-021,9,WEIGHT,Weight,63.8,kg,63.8,kg,2025-12-08,Baseline / Day 1,2
SYN-2026-01,VS,SYN-2026-01-SITE-103-021,10,SYSBP,Systolic Blood Pressure,145,mmHg,145,mmHg,2026-01-01,Week 4,3
SYN-2026-01,VS,SYN-2026-01-SITE-103-021,11,DIABP,Diastolic Blood Pressure,82,mmHg,82,mmHg,2026-01-01,Week 4,3
SYN-2026-01,VS,SYN-2026-01-SITE-103-021,12,PULSE,Pulse Rate,58,beats/min,58,beats/min,2026-01-01,Week 4,3
SYN-2026-01,VS,SYN-2026-01-SITE-103-021,13,WEIGHT,Weight,58.9,kg,58.9,kg,2026-01-01,Week 4,3
SYN-2026-01,VS,SYN-2026-01-SITE-103-040,1,SYSBP,Systolic Blood Pressure,111,mmHg,111,mmHg,2025-09-20,Screening,1
SYN-2026-01,VS,SYN-2026-01-SITE-103-040,2,DIABP,Diastolic Blood Pressure,64,mmHg,64,mmHg,2025-09-20,Screening,1
SYN-2026-01,VS,SYN-2026-01-SITE-103-040,3,PULSE,Pulse Rate,71,beats/min,71,beats/min,2025-09-20,Screening,1
SYN-2026-01,VS,SYN-2026-01-SITE-103-040,4,TEMP,Temperature,36.4,C,36.4,C,2025-09-20,Screening,1
SYN-2026-01,VS,SYN-2026-01-SITE-103-040,5,WEIGHT,Weight,81.3,kg,81.3,kg,2025-09-20,Screening,1
SYN-2026-01,VS,SYN-2026-01-SITE-103-040,6,SYSBP,Systolic Blood Pressure,140,mmHg,140,mmHg,2025-10-02,Baseline / Day 1,2
SYN-2026-01,VS,SYN-2026-01-SITE-103-040,7,DIABP,Diastolic Blood Pressure,85,mmHg,85,mmHg,2025-10-02,Baseline / Day 1,2
SYN-2026-01,VS,SYN-2026-01-SITE-103-040,8,PULSE,Pulse Rate,89,beats/min,89,beats/min,2025-10-02,Baseline / Day 1,2
SYN-2026-01,VS,SYN-2026-01-SITE-103-040,9,TEMP,Temperature,36.7,C,36.7,C,2025-10-02,Baseline / Day 1,2
SYN-2026-01,VS,SYN-2026-01-SITE-103-040,10,WEIGHT,Weight,45.4,kg,45.4,kg,2025-10-02,Baseline / Day 1,2
SYN-2026-01,VS,SYN-2026-01-SITE-103-040,11,SYSBP,Systolic Blood Pressure,103,mmHg,103,mmHg,2025-11-01,Week 4,3
SYN-2026-01,VS,SYN-2026-01-SITE-103-040,12,DIABP,Diastolic Blood Pressure,84,mmHg,84,mmHg,2025-11-01,Week 4,3
SYN-2026-01,VS,SYN-2026-01-SITE-103-040,13,PULSE,Pulse Rate,87,beats/min,87,beats/min,2025-11-01,Week 4,3
SYN-2026-01,VS,SYN-2026-01-SITE-103-040,14,TEMP,Temperature,36.6,C,36.6,C,2025-11-01,Week 4,3
SYN-2026-01,VS,SYN-2026-01-SITE-103-040,15,WEIGHT,Weight,89.1,kg,89.1,kg,2025-11-01,Week 4,3
SYN-2026-01,VS,SYN-2026-01-SITE-103-043,1,SYSBP,Systolic Blood Pressure,144,mmHg,144,mmHg,2025-09-22,Screening,1
SYN-2026-01,VS,SYN-2026-01-SITE-103-043,2,DIABP,Diastolic Blood Pressure,74,mmHg,74,mmHg,2025-09-22,Screening,1
SYN-2026-01,VS,SYN-2026-01-SITE-103-043,3,PULSE,Pulse Rate,76,beats/min,76,beats/min,2025-09-22,Screening,1
SYN-2026-01,VS,SYN-2026-01-SITE-103-043,4,TEMP,Temperature,36.1,C,36.1,C,2025-09-22,Screening,1
SYN-2026-01,VS,SYN-2026-01-SITE-103-043,5,WEIGHT,Weight,90.6,kg,90.6,kg,2025-09-22,Screening,1
SYN-2026-01,VS,SYN-2026-01-SITE-103-043,6,SYSBP,Systolic Blood Pressure,115,mmHg,115,mmHg,2025-10-06,Baseline / Day 1,2
SYN-2026-01,VS,SYN-2026-01-SITE-103-043,7,DIABP,Diastolic Blood Pressure,78,mmHg,78,mmHg,2025-10-06,Baseline / Day 1,2
SYN-2026-01,VS,SYN-2026-01-SITE-103-043,8,PULSE,Pulse Rate,86,beats/min,86,beats/min,2025-10-06,Baseline / Day 1,2
SYN-2026-01,VS,SYN-2026-01-SITE-103-043,9,TEMP,Temperature,36.6,C,36.6,C,2025-10-06,Baseline / Day 1,2
SYN-2026-01,VS,SYN-2026-01-SITE-103-043,10,WEIGHT,Weight,56.4,kg,56.4,kg,2025-10-06,Baseline / Day 1,2
SYN-2026-01,VS,SYN-2026-01-SITE-103-043,11,SYSBP,Systolic Blood Pressure,120,mmHg,120,mmHg,2025-11-05,Week 4,3
SYN-2026-01,VS,SYN-2026-01-SITE-103-043,12,DIABP,Diastolic Blood Pressure,82,mmHg,82,mmHg,2025-11-05,Week 4,3
SYN-2026-01,VS,SYN-2026-01-SITE-103-043,13,PULSE,Pulse Rate,74,beats/min,74,beats/min,2025-11-05,Week 4,3
SYN-2026-01,VS,SYN-2026-01-SITE-103-043,14,TEMP,Temperature,37.0,C,37.0,C,2025-11-05,Week 4,3
SYN-2026-01,VS,SYN-2026-01-SITE-103-043,15,WEIGHT,Weight,72.5,kg,72.5,kg,2025-11-05,Week 4,3
SYN-2026-01,VS,SYN-2026-01-SITE-103-043,16,SYSBP,Systolic Blood Pressure,117,mmHg,117,mmHg,2025-12-31,Week 12,4
SYN-2026-01,VS,SYN-2026-01-SITE-103-043,17,DIABP,Diastolic Blood Pressure,87,mmHg,87,mmHg,2025-12-31,Week 12,4
SYN-2026-01,VS,SYN-2026-01-SITE-103-043,18,PULSE,Pulse Rate,69,beats/min,69,beats/min,2025-12-31,Week 12,4
SYN-2026-01,VS,SYN-2026-01-SITE-103-043,19,TEMP,Temperature,36.3,C,36.3,C,2025-12-31,Week 12,4
SYN-2026-01,VS,SYN-2026-01-SITE-103-043,20,WEIGHT,Weight,73.1,kg,73.1,kg,2025-12-31,Week 12,4
SYN-2026-01,VS,SYN-2026-01-SITE-103-043,21,SYSBP,Systolic Blood Pressure,135,mmHg,135,mmHg,2026-03-27,End of study,5
SYN-2026-01,VS,SYN-2026-01-SITE-103-043,22,DIABP,Diastolic Blood Pressure,90,mmHg,90,mmHg,2026-03-27,End of study,5
SYN-2026-01,VS,SYN-2026-01-SITE-103-043,23,PULSE,Pulse Rate,78,beats/min,78,beats/min,2026-03-27,End of study,5
SYN-2026-01,VS,SYN-2026-01-SITE-103-043,24,TEMP,Temperature,36.6,C,36.6,C,2026-03-27,End of study,5
SYN-2026-01,VS,SYN-2026-01-SITE-103-043,25,WEIGHT,Weight,105.8,kg,105.8,kg,2026-03-27,End of study,5
SYN-2026-01,VS,SYN-2026-01-SITE-103-067,1,SYSBP,Systolic Blood Pressure,123,mmHg,123,mmHg,2026-01-01,Screening,1
SYN-2026-01,VS,SYN-2026-01-SITE-103-067,2,DIABP,Diastolic Blood Pressure,78,mmHg,78,mmHg,2026-01-01,Screening,1
SYN-2026-01,VS,SYN-2026-01-SITE-103-067,3,PULSE,Pulse Rate,66,beats/min,66,beats/min,2026-01-01,Screening,1
SYN-2026-01,VS,SYN-2026-01-SITE-103-067,4,WEIGHT,Weight,83.7,kg,83.7,kg,2026-01-01,Screening,1
SYN-2026-01,VS,SYN-2026-01-SITE-103-067,5,SYSBP,Systolic Blood Pressure,128,mmHg,128,mmHg,2026-01-22,Baseline / Day 1,2
SYN-2026-01,VS,SYN-2026-01-SITE-103-067,6,DIABP,Diastolic Blood Pressure,76,mmHg,76,mmHg,2026-01-22,Baseline / Day 1,2
SYN-2026-01,VS,SYN-2026-01-SITE-103-067,7,PULSE,Pulse Rate,69,beats/min,69,beats/min,2026-01-22,Baseline / Day 1,2
SYN-2026-01,VS,SYN-2026-01-SITE-103-067,8,TEMP,Temperature,36.7,C,36.7,C,2026-01-22,Baseline / Day 1,2
SYN-2026-01,VS,SYN-2026-01-SITE-103-067,9,WEIGHT,Weight,77.6,kg,77.6,kg,2026-01-22,Baseline / Day 1,2
SYN-2026-01,VS,SYN-2026-01-SITE-103-067,10,SYSBP,Systolic Blood Pressure,124,mmHg,124,mmHg,2026-02-17,Week 4,3
SYN-2026-01,VS,SYN-2026-01-SITE-103-067,11,DIABP,Diastolic Blood Pressure,95,mmHg,95,mmHg,2026-02-17,Week 4,3
SYN-2026-01,VS,SYN-2026-01-SITE-103-067,12,PULSE,Pulse Rate,72,beats/min,72,beats/min,2026-02-17,Week 4,3
SYN-2026-01,VS,SYN-2026-01-SITE-103-067,13,TEMP,Temperature,37.5,C,37.5,C,2026-02-17,Week 4,3
SYN-2026-01,VS,SYN-2026-01-SITE-103-067,14,WEIGHT,Weight,87.2,kg,87.2,kg,2026-02-17,Week 4,3
SYN-2026-01,VS,SYN-2026-01-SITE-103-067,15,SYSBP,Systolic Blood Pressure,129,mmHg,129,mmHg,2026-04-16,Week 12,4
SYN-2026-01,VS,SYN-2026-01-SITE-103-067,16,DIABP,Diastolic Blood Pressure,80,mmHg,80,mmHg,2026-04-16,Week 12,4
SYN-2026-01,VS,SYN-2026-01-SITE-103-067,17,PULSE,Pulse Rate,81,beats/min,81,beats/min,2026-04-16,Week 12,4
SYN-2026-01,VS,SYN-2026-01-SITE-103-067,18,WEIGHT,Weight,86.4,kg,86.4,kg,2026-04-16,Week 12,4
SYN-2026-01,VS,SYN-2026-01-SITE-103-067,19,SYSBP,Systolic Blood Pressure,130,mmHg,130,mmHg,2026-07-15,End of study,5
SYN-2026-01,VS,SYN-2026-01-SITE-103-067,20,DIABP,Diastolic Blood Pressure,76,mmHg,76,mmHg,2026-07-15,End of study,5
SYN-2026-01,VS,SYN-2026-01-SITE-103-067,21,PULSE,Pulse Rate,59,beats/min,59,beats/min,2026-07-15,End of study,5
SYN-2026-01,VS,SYN-2026-01-SITE-103-067,22,TEMP,Temperature,37.1,C,37.1,C,2026-07-15,End of study,5
SYN-2026-01,VS,SYN-2026-01-SITE-103-067,23,WEIGHT,Weight,70.7,kg,70.7,kg,2026-07-15,End of study,5
SYN-2026-01,VS,SYN-2026-01-SITE-103-084,1,SYSBP,Systolic Blood Pressure,122,mmHg,122,mmHg,2025-12-25,Screening,1
SYN-2026-01,VS,SYN-2026-01-SITE-103-084,2,DIABP,Diastolic Blood Pressure,77,mmHg,77,mmHg,2025-12-25,Screening,1
SYN-2026-01,VS,SYN-2026-01-SITE-103-084,3,PULSE,Pulse Rate,83,beats/min,83,beats/min,2025-12-25,Screening,1
SYN-2026-01,VS,SYN-2026-01-SITE-103-084,4,TEMP,Temperature,37.5,C,37.5,C,2025-12-25,Screening,1
SYN-2026-01,VS,SYN-2026-01-SITE-103-084,5,WEIGHT,Weight,85.2,kg,85.2,kg,2025-12-25,Screening,1
SYN-2026-01,VS,SYN-2026-01-SITE-103-084,6,SYSBP,Systolic Blood Pressure,145,mmHg,145,mmHg,2026-01-06,Baseline / Day 1,2
SYN-2026-01,VS,SYN-2026-01-SITE-103-084,7,DIABP,Diastolic Blood Pressure,81,mmHg,81,mmHg,2026-01-06,Baseline / Day 1,2
SYN-2026-01,VS,SYN-2026-01-SITE-103-084,8,PULSE,Pulse Rate,76,beats/min,76,beats/min,2026-01-06,Baseline / Day 1,2
SYN-2026-01,VS,SYN-2026-01-SITE-103-084,9,TEMP,Temperature,36.5,C,36.5,C,2026-01-06,Baseline / Day 1,2
SYN-2026-01,VS,SYN-2026-01-SITE-103-084,10,WEIGHT,Weight,65.1,kg,65.1,kg,2026-01-06,Baseline / Day 1,2
SYN-2026-01,VS,SYN-2026-01-SITE-103-085,1,SYSBP,Systolic Blood Pressure,147,mmHg,147,mmHg,2026-03-10,Screening,1
SYN-2026-01,VS,SYN-2026-01-SITE-103-085,2,DIABP,Diastolic Blood Pressure,58,mmHg,58,mmHg,2026-03-10,Screening,1
SYN-2026-01,VS,SYN-2026-01-SITE-103-085,3,PULSE,Pulse Rate,84,beats/min,84,beats/min,2026-03-10,Screening,1
SYN-2026-01,VS,SYN-2026-01-SITE-103-085,4,TEMP,Temperature,36.5,C,36.5,C,2026-03-10,Screening,1
SYN-2026-01,VS,SYN-2026-01-SITE-103-085,5,WEIGHT,Weight,70.0,kg,70.0,kg,2026-03-10,Screening,1
SYN-2026-01,VS,SYN-2026-01-SITE-103-085,6,SYSBP,Systolic Blood Pressure,147,mmHg,147,mmHg,2026-03-20,Baseline / Day 1,2
SYN-2026-01,VS,SYN-2026-01-SITE-103-085,7,DIABP,Diastolic Blood Pressure,82,mmHg,82,mmHg,2026-03-20,Baseline / Day 1,2
SYN-2026-01,VS,SYN-2026-01-SITE-103-085,8,PULSE,Pulse Rate,78,beats/min,78,beats/min,2026-03-20,Baseline / Day 1,2
SYN-2026-01,VS,SYN-2026-01-SITE-103-085,9,TEMP,Temperature,36.9,C,36.9,C,2026-03-20,Baseline / Day 1,2
SYN-2026-01,VS,SYN-2026-01-SITE-103-085,10,WEIGHT,Weight,89.2,kg,89.2,kg,2026-03-20,Baseline / Day 1,2
SYN-2026-01,VS,SYN-2026-01-SITE-103-085,11,SYSBP,Systolic Blood Pressure,145,mmHg,145,mmHg,2026-04-13,Week 4,3
SYN-2026-01,VS,SYN-2026-01-SITE-103-085,12,DIABP,Diastolic Blood Pressure,73,mmHg,73,mmHg,2026-04-13,Week 4,3
SYN-2026-01,VS,SYN-2026-01-SITE-103-085,13,PULSE,Pulse Rate,49,beats/min,49,beats/min,2026-04-13,Week 4,3
SYN-2026-01,VS,SYN-2026-01-SITE-103-085,14,TEMP,Temperature,36.2,C,36.2,C,2026-04-13,Week 4,3
SYN-2026-01,VS,SYN-2026-01-SITE-103-085,15,WEIGHT,Weight,84.2,kg,84.2,kg,2026-04-13,Week 4,3
SYN-2026-01,VS,SYN-2026-01-SITE-103-085,16,SYSBP,Systolic Blood Pressure,108,mmHg,108,mmHg,2026-06-09,Week 12,4
SYN-2026-01,VS,SYN-2026-01-SITE-103-085,17,DIABP,Diastolic Blood Pressure,86,mmHg,86,mmHg,2026-06-09,Week 12,4
SYN-2026-01,VS,SYN-2026-01-SITE-103-085,18,PULSE,Pulse Rate,77,beats/min,77,beats/min,2026-06-09,Week 12,4
SYN-2026-01,VS,SYN-2026-01-SITE-103-085,19,TEMP,Temperature,37.0,C,37.0,C,2026-06-09,Week 12,4
SYN-2026-01,VS,SYN-2026-01-SITE-103-085,20,WEIGHT,Weight,62.0,kg,62.0,kg,2026-06-09,Week 12,4
SYN-2026-01,VS,SYN-2026-01-SITE-103-085,21,SYSBP,Systolic Blood Pressure,125,mmHg,125,mmHg,2026-08-28,End of study,5
SYN-2026-01,VS,SYN-2026-01-SITE-103-085,22,DIABP,Diastolic Blood Pressure,93,mmHg,93,mmHg,2026-08-28,End of study,5
SYN-2026-01,VS,SYN-2026-01-SITE-103-085,23,PULSE,Pulse Rate,80,beats/min,80,beats/min,2026-08-28,End of study,5
SYN-2026-01,VS,SYN-2026-01-SITE-103-085,24,TEMP,Temperature,36.1,C,36.1,C,2026-08-28,End of study,5
SYN-2026-01,VS,SYN-2026-01-SITE-103-085,25,WEIGHT,Weight,64.1,kg,64.1,kg,2026-08-28,End of study,5
SYN-2026-01,VS,SYN-2026-01-SITE-103-093,1,SYSBP,Systolic Blood Pressure,122,mmHg,122,mmHg,2026-02-20,Screening,1
SYN-2026-01,VS,SYN-2026-01-SITE-103-093,2,DIABP,Diastolic Blood Pressure,71,mmHg,71,mmHg,2026-02-20,Screening,1
SYN-2026-01,VS,SYN-2026-01-SITE-103-093,3,PULSE,Pulse Rate,75,beats/min,75,beats/min,2026-02-20,Screening,1
SYN-2026-01,VS,SYN-2026-01-SITE-103-093,4,TEMP,Temperature,36.9,C,36.9,C,2026-02-20,Screening,1
SYN-2026-01,VS,SYN-2026-01-SITE-103-093,5,WEIGHT,Weight,64.2,kg,64.2,kg,2026-02-20,Screening,1
SYN-2026-01,VS,SYN-2026-01-SITE-103-093,6,SYSBP,Systolic Blood Pressure,121,mmHg,121,mmHg,2026-03-07,Baseline / Day 1,2
SYN-2026-01,VS,SYN-2026-01-SITE-103-093,7,DIABP,Diastolic Blood Pressure,65,mmHg,65,mmHg,2026-03-07,Baseline / Day 1,2
SYN-2026-01,VS,SYN-2026-01-SITE-103-093,8,PULSE,Pulse Rate,60,beats/min,60,beats/min,2026-03-07,Baseline / Day 1,2
SYN-2026-01,VS,SYN-2026-01-SITE-103-093,9,TEMP,Temperature,36.5,C,36.5,C,2026-03-07,Baseline / Day 1,2
SYN-2026-01,VS,SYN-2026-01-SITE-103-093,10,WEIGHT,Weight,99.8,kg,99.8,kg,2026-03-07,Baseline / Day 1,2
SYN-2026-01,VS,SYN-2026-01-SITE-103-093,11,SYSBP,Systolic Blood Pressure,121,mmHg,121,mmHg,2026-04-03,Week 4,3
SYN-2026-01,VS,SYN-2026-01-SITE-103-093,12,DIABP,Diastolic Blood Pressure,91,mmHg,91,mmHg,2026-04-03,Week 4,3
SYN-2026-01,VS,SYN-2026-01-SITE-103-093,13,PULSE,Pulse Rate,90,beats/min,90,beats/min,2026-04-03,Week 4,3
SYN-2026-01,VS,SYN-2026-01-SITE-103-093,14,TEMP,Temperature,36.9,C,36.9,C,2026-04-03,Week 4,3
SYN-2026-01,VS,SYN-2026-01-SITE-103-093,15,WEIGHT,Weight,64.6,kg,64.6,kg,2026-04-03,Week 4,3
SYN-2026-01,VS,SYN-2026-01-SITE-103-093,16,SYSBP,Systolic Blood Pressure,132,mmHg,132,mmHg,2026-05-25,Week 12,4
SYN-2026-01,VS,SYN-2026-01-SITE-103-093,17,DIABP,Diastolic Blood Pressure,90,mmHg,90,mmHg,2026-05-25,Week 12,4
SYN-2026-01,VS,SYN-2026-01-SITE-103-093,18,PULSE,Pulse Rate,58,beats/min,58,beats/min,2026-05-25,Week 12,4
SYN-2026-01,VS,SYN-2026-01-SITE-103-093,19,TEMP,Temperature,37.2,C,37.2,C,2026-05-25,Week 12,4
SYN-2026-01,VS,SYN-2026-01-SITE-103-093,20,WEIGHT,Weight,89.7,kg,89.7,kg,2026-05-25,Week 12,4
SYN-2026-01,VS,SYN-2026-01-SITE-103-093,21,SYSBP,Systolic Blood Pressure,136,mmHg,136,mmHg,2026-08-20,End of study,5
SYN-2026-01,VS,SYN-2026-01-SITE-103-093,22,DIABP,Diastolic Blood Pressure,93,mmHg,93,mmHg,2026-08-20,End of study,5
SYN-2026-01,VS,SYN-2026-01-SITE-103-093,23,PULSE,Pulse Rate,74,beats/min,74,beats/min,2026-08-20,End of study,5
SYN-2026-01,VS,SYN-2026-01-SITE-103-093,24,TEMP,Temperature,36.9,C,36.9,C,2026-08-20,End of study,5
SYN-2026-01,VS,SYN-2026-01-SITE-103-093,25,WEIGHT,Weight,77.2,kg,77.2,kg,2026-08-20,End of study,5
SYN-2026-01,VS,SYN-2026-01-SITE-103-099,1,SYSBP,Systolic Blood Pressure,122,mmHg,122,mmHg,2025-10-06,Screening,1
SYN-2026-01,VS,SYN-2026-01-SITE-103-099,2,DIABP,Diastolic Blood Pressure,77,mmHg,77,mmHg,2025-10-06,Screening,1
SYN-2026-01,VS,SYN-2026-01-SITE-103-099,3,PULSE,Pulse Rate,74,beats/min,74,beats/min,2025-10-06,Screening,1
SYN-2026-01,VS,SYN-2026-01-SITE-103-099,4,TEMP,Temperature,36.6,C,36.6,C,2025-10-06,Screening,1
SYN-2026-01,VS,SYN-2026-01-SITE-103-099,5,WEIGHT,Weight,71.4,kg,71.4,kg,2025-10-06,Screening,1
SYN-2026-01,VS,SYN-2026-01-SITE-103-099,6,SYSBP,Systolic Blood Pressure,117,mmHg,117,mmHg,2025-10-21,Baseline / Day 1,2
SYN-2026-01,VS,SYN-2026-01-SITE-103-099,7,DIABP,Diastolic Blood Pressure,92,mmHg,92,mmHg,2025-10-21,Baseline / Day 1,2
SYN-2026-01,VS,SYN-2026-01-SITE-103-099,8,PULSE,Pulse Rate,61,beats/min,61,beats/min,2025-10-21,Baseline / Day 1,2
SYN-2026-01,VS,SYN-2026-01-SITE-103-099,9,TEMP,Temperature,37.2,C,37.2,C,2025-10-21,Baseline / Day 1,2
SYN-2026-01,VS,SYN-2026-01-SITE-103-099,10,WEIGHT,Weight,79.2,kg,79.2,kg,2025-10-21,Baseline / Day 1,2
SYN-2026-01,VS,SYN-2026-01-SITE-103-099,11,SYSBP,Systolic Blood Pressure,158,mmHg,158,mmHg,2025-11-19,Week 4,3
SYN-2026-01,VS,SYN-2026-01-SITE-103-099,12,DIABP,Diastolic Blood Pressure,85,mmHg,85,mmHg,2025-11-19,Week 4,3
SYN-2026-01,VS,SYN-2026-01-SITE-103-099,13,PULSE,Pulse Rate,78,beats/min,78,beats/min,2025-11-19,Week 4,3
SYN-2026-01,VS,SYN-2026-01-SITE-103-099,14,WEIGHT,Weight,83.5,kg,83.5,kg,2025-11-19,Week 4,3
SYN-2026-01,VS,SYN-2026-01-SITE-103-099,15,SYSBP,Systolic Blood Pressure,138,mmHg,138,mmHg,2026-01-17,Week 12,4
SYN-2026-01,VS,SYN-2026-01-SITE-103-099,16,DIABP,Diastolic Blood Pressure,88,mmHg,88,mmHg,2026-01-17,Week 12,4
SYN-2026-01,VS,SYN-2026-01-SITE-103-099,17,PULSE,Pulse Rate,79,beats/min,79,beats/min,2026-01-17,Week 12,4
SYN-2026-01,VS,SYN-2026-01-SITE-103-099,18,TEMP,Temperature,36.4,C,36.4,C,2026-01-17,Week 12,4
SYN-2026-01,VS,SYN-2026-01-SITE-103-099,19,WEIGHT,Weight,55.8,kg,55.8,kg,2026-01-17,Week 12,4
SYN-2026-01,VS,SYN-2026-01-SITE-103-099,20,SYSBP,Systolic Blood Pressure,117,mmHg,117,mmHg,2026-04-07,End of study,5
SYN-2026-01,VS,SYN-2026-01-SITE-103-099,21,DIABP,Diastolic Blood Pressure,72,mmHg,72,mmHg,2026-04-07,End of study,5
SYN-2026-01,VS,SYN-2026-01-SITE-103-099,22,PULSE,Pulse Rate,68,beats/min,68,beats/min,2026-04-07,End of study,5
SYN-2026-01,VS,SYN-2026-01-SITE-103-099,23,TEMP,Temperature,37.3,C,37.3,C,2026-04-07,End of study,5
SYN-2026-01,VS,SYN-2026-01-SITE-103-099,24,WEIGHT,Weight,72.2,kg,72.2,kg,2026-04-07,End of study,5
SYN-2026-01,VS,SYN-2026-01-SITE-103-100,1,SYSBP,Systolic Blood Pressure,143,mmHg,143,mmHg,2025-12-27,Screening,1
SYN-2026-01,VS,SYN-2026-01-SITE-103-100,2,DIABP,Diastolic Blood Pressure,80,mmHg,80,mmHg,2025-12-27,Screening,1
SYN-2026-01,VS,SYN-2026-01-SITE-103-100,3,PULSE,Pulse Rate,71,beats/min,71,beats/min,2025-12-27,Screening,1
SYN-2026-01,VS,SYN-2026-01-SITE-103-100,4,TEMP,Temperature,36.8,C,36.8,C,2025-12-27,Screening,1
SYN-2026-01,VS,SYN-2026-01-SITE-103-100,5,WEIGHT,Weight,80.6,kg,80.6,kg,2025-12-27,Screening,1
SYN-2026-01,VS,SYN-2026-01-SITE-103-100,6,SYSBP,Systolic Blood Pressure,129,mmHg,129,mmHg,2026-01-07,Baseline / Day 1,2
SYN-2026-01,VS,SYN-2026-01-SITE-103-100,7,DIABP,Diastolic Blood Pressure,78,mmHg,78,mmHg,2026-01-07,Baseline / Day 1,2
SYN-2026-01,VS,SYN-2026-01-SITE-103-100,8,PULSE,Pulse Rate,75,beats/min,75,beats/min,2026-01-07,Baseline / Day 1,2
SYN-2026-01,VS,SYN-2026-01-SITE-103-100,9,TEMP,Temperature,36.5,C,36.5,C,2026-01-07,Baseline / Day 1,2
SYN-2026-01,VS,SYN-2026-01-SITE-103-100,10,WEIGHT,Weight,81.6,kg,81.6,kg,2026-01-07,Baseline / Day 1,2
SYN-2026-01,VS,SYN-2026-01-SITE-103-100,11,SYSBP,Systolic Blood Pressure,134,mmHg,134,mmHg,2026-01-31,Week 4,3
SYN-2026-01,VS,SYN-2026-01-SITE-103-100,12,DIABP,Diastolic Blood Pressure,80,mmHg,80,mmHg,2026-01-31,Week 4,3
SYN-2026-01,VS,SYN-2026-01-SITE-103-100,13,PULSE,Pulse Rate,79,beats/min,79,beats/min,2026-01-31,Week 4,3
SYN-2026-01,VS,SYN-2026-01-SITE-103-100,14,TEMP,Temperature,36.4,C,36.4,C,2026-01-31,Week 4,3
SYN-2026-01,VS,SYN-2026-01-SITE-103-100,15,WEIGHT,Weight,111.3,kg,111.3,kg,2026-01-31,Week 4,3
SYN-2026-01,VS,SYN-2026-01-SITE-103-100,16,SYSBP,Systolic Blood Pressure,131,mmHg,131,mmHg,2026-03-29,Week 12,4
SYN-2026-01,VS,SYN-2026-01-SITE-103-100,17,DIABP,Diastolic Blood Pressure,88,mmHg,88,mmHg,2026-03-29,Week 12,4
SYN-2026-01,VS,SYN-2026-01-SITE-103-100,18,PULSE,Pulse Rate,71,beats/min,71,beats/min,2026-03-29,Week 12,4
SYN-2026-01,VS,SYN-2026-01-SITE-103-100,19,TEMP,Temperature,36.3,C,36.3,C,2026-03-29,Week 12,4
SYN-2026-01,VS,SYN-2026-01-SITE-103-100,20,WEIGHT,Weight,70.0,kg,70.0,kg,2026-03-29,Week 12,4
SYN-2026-01,VS,SYN-2026-01-SITE-103-100,21,SYSBP,Systolic Blood Pressure,106,mmHg,106,mmHg,2026-06-30,End of study,5
SYN-2026-01,VS,SYN-2026-01-SITE-103-100,22,DIABP,Diastolic Blood Pressure,88,mmHg,88,mmHg,2026-06-30,End of study,5
SYN-2026-01,VS,SYN-2026-01-SITE-103-100,23,PULSE,Pulse Rate,78,beats/min,78,beats/min,2026-06-30,End of study,5
SYN-2026-01,VS,SYN-2026-01-SITE-103-100,24,TEMP,Temperature,36.6,C,36.6,C,2026-06-30,End of study,5
SYN-2026-01,VS,SYN-2026-01-SITE-103-100,25,WEIGHT,Weight,68.3,kg,68.3,kg,2026-06-30,End of study,5
SYN-2026-01,VS,SYN-2026-01-SITE-103-102,1,SYSBP,Systolic Blood Pressure,119,mmHg,119,mmHg,2025-12-23,Screening,1
SYN-2026-01,VS,SYN-2026-01-SITE-103-102,2,DIABP,Diastolic Blood Pressure,68,mmHg,68,mmHg,2025-12-23,Screening,1
SYN-2026-01,VS,SYN-2026-01-SITE-103-102,3,PULSE,Pulse Rate,70,beats/min,70,beats/min,2025-12-23,Screening,1
SYN-2026-01,VS,SYN-2026-01-SITE-103-102,4,TEMP,Temperature,36.8,C,36.8,C,2025-12-23,Screening,1
SYN-2026-01,VS,SYN-2026-01-SITE-103-102,5,WEIGHT,Weight,75.1,kg,75.1,kg,2025-12-23,Screening,1
SYN-2026-01,VS,SYN-2026-01-SITE-103-102,6,SYSBP,Systolic Blood Pressure,123,mmHg,123,mmHg,2026-01-12,Baseline / Day 1,2
SYN-2026-01,VS,SYN-2026-01-SITE-103-102,7,DIABP,Diastolic Blood Pressure,75,mmHg,75,mmHg,2026-01-12,Baseline / Day 1,2
SYN-2026-01,VS,SYN-2026-01-SITE-103-102,8,PULSE,Pulse Rate,74,beats/min,74,beats/min,2026-01-12,Baseline / Day 1,2
SYN-2026-01,VS,SYN-2026-01-SITE-103-102,9,WEIGHT,Weight,72.5,kg,72.5,kg,2026-01-12,Baseline / Day 1,2
SYN-2026-01,VS,SYN-2026-01-SITE-103-102,10,SYSBP,Systolic Blood Pressure,143,mmHg,143,mmHg,2026-02-05,Week 4,3
SYN-2026-01,VS,SYN-2026-01-SITE-103-102,11,DIABP,Diastolic Blood Pressure,93,mmHg,93,mmHg,2026-02-05,Week 4,3
SYN-2026-01,VS,SYN-2026-01-SITE-103-102,12,PULSE,Pulse Rate,96,beats/min,96,beats/min,2026-02-05,Week 4,3
SYN-2026-01,VS,SYN-2026-01-SITE-103-102,13,TEMP,Temperature,37.6,C,37.6,C,2026-02-05,Week 4,3
SYN-2026-01,VS,SYN-2026-01-SITE-103-102,14,WEIGHT,Weight,69.5,kg,69.5,kg,2026-02-05,Week 4,3
SYN-2026-01,VS,SYN-2026-01-SITE-103-102,15,SYSBP,Systolic Blood Pressure,142,mmHg,142,mmHg,2026-04-08,Week 12,4
SYN-2026-01,VS,SYN-2026-01-SITE-103-102,16,DIABP,Diastolic Blood Pressure,85,mmHg,85,mmHg,2026-04-08,Week 12,4
SYN-2026-01,VS,SYN-2026-01-SITE-103-102,17,PULSE,Pulse Rate,61,beats/min,61,beats/min,2026-04-08,Week 12,4
SYN-2026-01,VS,SYN-2026-01-SITE-103-102,18,TEMP,Temperature,36.5,C,36.5,C,2026-04-08,Week 12,4
SYN-2026-01,VS,SYN-2026-01-SITE-103-102,19,WEIGHT,Weight,80.0,kg,80.0,kg,2026-04-08,Week 12,4
SYN-2026-01,VS,SYN-2026-01-SITE-103-102,20,SYSBP,Systolic Blood Pressure,127,mmHg,127,mmHg,2026-06-28,End of study,5
SYN-2026-01,VS,SYN-2026-01-SITE-103-102,21,DIABP,Diastolic Blood Pressure,93,mmHg,93,mmHg,2026-06-28,End of study,5
SYN-2026-01,VS,SYN-2026-01-SITE-103-102,22,PULSE,Pulse Rate,81,beats/min,81,beats/min,2026-06-28,End of study,5
SYN-2026-01,VS,SYN-2026-01-SITE-103-102,23,TEMP,Temperature,37.0,C,37.0,C,2026-06-28,End of study,5
SYN-2026-01,VS,SYN-2026-01-SITE-103-102,24,WEIGHT,Weight,72.0,kg,72.0,kg,2026-06-28,End of study,5
SYN-2026-01,VS,SYN-2026-01-SITE-103-120,1,SYSBP,Systolic Blood Pressure,116,mmHg,116,mmHg,2025-12-22,Screening,1
SYN-2026-01,VS,SYN-2026-01-SITE-103-120,2,DIABP,Diastolic Blood Pressure,83,mmHg,83,mmHg,2025-12-22,Screening,1
SYN-2026-01,VS,SYN-2026-01-SITE-103-120,3,PULSE,Pulse Rate,75,beats/min,75,beats/min,2025-12-22,Screening,1
SYN-2026-01,VS,SYN-2026-01-SITE-103-120,4,TEMP,Temperature,36.4,C,36.4,C,2025-12-22,Screening,1
SYN-2026-01,VS,SYN-2026-01-SITE-103-120,5,WEIGHT,Weight,77.9,kg,77.9,kg,2025-12-22,Screening,1
SYN-2026-01,VS,SYN-2026-01-SITE-103-120,6,SYSBP,Systolic Blood Pressure,123,mmHg,123,mmHg,2026-01-12,Baseline / Day 1,2
SYN-2026-01,VS,SYN-2026-01-SITE-103-120,7,DIABP,Diastolic Blood Pressure,81,mmHg,81,mmHg,2026-01-12,Baseline / Day 1,2
SYN-2026-01,VS,SYN-2026-01-SITE-103-120,8,PULSE,Pulse Rate,70,beats/min,70,beats/min,2026-01-12,Baseline / Day 1,2
SYN-2026-01,VS,SYN-2026-01-SITE-103-120,9,TEMP,Temperature,35.9,C,35.9,C,2026-01-12,Baseline / Day 1,2
SYN-2026-01,VS,SYN-2026-01-SITE-103-120,10,WEIGHT,Weight,73.0,kg,73.0,kg,2026-01-12,Baseline / Day 1,2
SYN-2026-01,VS,SYN-2026-01-SITE-103-120,11,SYSBP,Systolic Blood Pressure,116,mmHg,116,mmHg,2026-02-06,Week 4,3
SYN-2026-01,VS,SYN-2026-01-SITE-103-120,12,DIABP,Diastolic Blood Pressure,70,mmHg,70,mmHg,2026-02-06,Week 4,3
SYN-2026-01,VS,SYN-2026-01-SITE-103-120,13,PULSE,Pulse Rate,88,beats/min,88,beats/min,2026-02-06,Week 4,3
SYN-2026-01,VS,SYN-2026-01-SITE-103-120,14,WEIGHT,Weight,99.7,kg,99.7,kg,2026-02-06,Week 4,3
SYN-2026-01,VS,SYN-2026-01-SITE-103-120,15,SYSBP,Systolic Blood Pressure,126,mmHg,126,mmHg,2026-04-01,Week 12,4
SYN-2026-01,VS,SYN-2026-01-SITE-103-120,16,DIABP,Diastolic Blood Pressure,92,mmHg,92,mmHg,2026-04-01,Week 12,4
SYN-2026-01,VS,SYN-2026-01-SITE-103-120,17,PULSE,Pulse Rate,75,beats/min,75,beats/min,2026-04-01,Week 12,4
SYN-2026-01,VS,SYN-2026-01-SITE-103-120,18,TEMP,Temperature,36.5,C,36.5,C,2026-04-01,Week 12,4
SYN-2026-01,VS,SYN-2026-01-SITE-103-120,19,WEIGHT,Weight,79.4,kg,79.4,kg,2026-04-01,Week 12,4
SYN-2026-01,VS,SYN-2026-01-SITE-103-120,20,SYSBP,Systolic Blood Pressure,116,mmHg,116,mmHg,2026-06-29,End of study,5
SYN-2026-01,VS,SYN-2026-01-SITE-103-120,21,DIABP,Diastolic Blood Pressure,74,mmHg,74,mmHg,2026-06-29,End of study,5
SYN-2026-01,VS,SYN-2026-01-SITE-103-120,22,PULSE,Pulse Rate,66,beats/min,66,beats/min,2026-06-29,End of study,5
SYN-2026-01,VS,SYN-2026-01-SITE-103-120,23,TEMP,Temperature,36.0,C,36.0,C,2026-06-29,End of study,5
SYN-2026-01,VS,SYN-2026-01-SITE-103-120,24,WEIGHT,Weight,89.9,kg,89.9,kg,2026-06-29,End of study,5
SYN-2026-01,VS,SYN-2026-01-SITE-104-007,1,SYSBP,Systolic Blood Pressure,164,mmHg,164,mmHg,2025-11-19,Screening,1
SYN-2026-01,VS,SYN-2026-01-SITE-104-007,2,DIABP,Diastolic Blood Pressure,73,mmHg,73,mmHg,2025-11-19,Screening,1
SYN-2026-01,VS,SYN-2026-01-SITE-104-007,3,PULSE,Pulse Rate,59,beats/min,59,beats/min,2025-11-19,Screening,1
SYN-2026-01,VS,SYN-2026-01-SITE-104-007,4,WEIGHT,Weight,63.8,kg,63.8,kg,2025-11-19,Screening,1
SYN-2026-01,VS,SYN-2026-01-SITE-104-007,5,SYSBP,Systolic Blood Pressure,125,mmHg,125,mmHg,2025-12-06,Baseline / Day 1,2
SYN-2026-01,VS,SYN-2026-01-SITE-104-007,6,DIABP,Diastolic Blood Pressure,70,mmHg,70,mmHg,2025-12-06,Baseline / Day 1,2
SYN-2026-01,VS,SYN-2026-01-SITE-104-007,7,PULSE,Pulse Rate,70,beats/min,70,beats/min,2025-12-06,Baseline / Day 1,2
SYN-2026-01,VS,SYN-2026-01-SITE-104-007,8,TEMP,Temperature,35.9,C,35.9,C,2025-12-06,Baseline / Day 1,2
SYN-2026-01,VS,SYN-2026-01-SITE-104-007,9,WEIGHT,Weight,100.4,kg,100.4,kg,2025-12-06,Baseline / Day 1,2
SYN-2026-01,VS,SYN-2026-01-SITE-104-007,10,SYSBP,Systolic Blood Pressure,120,mmHg,120,mmHg,2026-01-04,Week 4,3
SYN-2026-01,VS,SYN-2026-01-SITE-104-007,11,DIABP,Diastolic Blood Pressure,72,mmHg,72,mmHg,2026-01-04,Week 4,3
SYN-2026-01,VS,SYN-2026-01-SITE-104-007,12,PULSE,Pulse Rate,90,beats/min,90,beats/min,2026-01-04,Week 4,3
SYN-2026-01,VS,SYN-2026-01-SITE-104-007,13,TEMP,Temperature,35.9,C,35.9,C,2026-01-04,Week 4,3
SYN-2026-01,VS,SYN-2026-01-SITE-104-007,14,WEIGHT,Weight,60.7,kg,60.7,kg,2026-01-04,Week 4,3
SYN-2026-01,VS,SYN-2026-01-SITE-104-008,1,SYSBP,Systolic Blood Pressure,116,mmHg,116,mmHg,2026-03-06,Screening,1
SYN-2026-01,VS,SYN-2026-01-SITE-104-008,2,DIABP,Diastolic Blood Pressure,76,mmHg,76,mmHg,2026-03-06,Screening,1
SYN-2026-01,VS,SYN-2026-01-SITE-104-008,3,PULSE,Pulse Rate,76,beats/min,76,beats/min,2026-03-06,Screening,1
SYN-2026-01,VS,SYN-2026-01-SITE-104-008,4,WEIGHT,Weight,72.8,kg,72.8,kg,2026-03-06,Screening,1
SYN-2026-01,VS,SYN-2026-01-SITE-104-008,5,SYSBP,Systolic Blood Pressure,127,mmHg,127,mmHg,2026-03-19,Baseline / Day 1,2
SYN-2026-01,VS,SYN-2026-01-SITE-104-008,6,DIABP,Diastolic Blood Pressure,73,mmHg,73,mmHg,2026-03-19,Baseline / Day 1,2
SYN-2026-01,VS,SYN-2026-01-SITE-104-008,7,PULSE,Pulse Rate,77,beats/min,77,beats/min,2026-03-19,Baseline / Day 1,2
SYN-2026-01,VS,SYN-2026-01-SITE-104-008,8,TEMP,Temperature,36.6,C,36.6,C,2026-03-19,Baseline / Day 1,2
SYN-2026-01,VS,SYN-2026-01-SITE-104-008,9,WEIGHT,Weight,59.6,kg,59.6,kg,2026-03-19,Baseline / Day 1,2
SYN-2026-01,VS,SYN-2026-01-SITE-104-008,10,SYSBP,Systolic Blood Pressure,122,mmHg,122,mmHg,2026-04-17,Week 4,3
SYN-2026-01,VS,SYN-2026-01-SITE-104-008,11,DIABP,Diastolic Blood Pressure,81,mmHg,81,mmHg,2026-04-17,Week 4,3
SYN-2026-01,VS,SYN-2026-01-SITE-104-008,12,PULSE,Pulse Rate,61,beats/min,61,beats/min,2026-04-17,Week 4,3
SYN-2026-01,VS,SYN-2026-01-SITE-104-008,13,TEMP,Temperature,36.3,C,36.3,C,2026-04-17,Week 4,3
SYN-2026-01,VS,SYN-2026-01-SITE-104-008,14,WEIGHT,Weight,69.6,kg,69.6,kg,2026-04-17,Week 4,3
SYN-2026-01,VS,SYN-2026-01-SITE-104-008,15,SYSBP,Systolic Blood Pressure,113,mmHg,113,mmHg,2026-06-15,Week 12,4
SYN-2026-01,VS,SYN-2026-01-SITE-104-008,16,DIABP,Diastolic Blood Pressure,83,mmHg,83,mmHg,2026-06-15,Week 12,4
SYN-2026-01,VS,SYN-2026-01-SITE-104-008,17,PULSE,Pulse Rate,75,beats/min,75,beats/min,2026-06-15,Week 12,4
SYN-2026-01,VS,SYN-2026-01-SITE-104-008,18,WEIGHT,Weight,48.5,kg,48.5,kg,2026-06-15,Week 12,4
SYN-2026-01,VS,SYN-2026-01-SITE-104-008,19,SYSBP,Systolic Blood Pressure,133,mmHg,133,mmHg,2026-08-31,End of study,5
SYN-2026-01,VS,SYN-2026-01-SITE-104-008,20,DIABP,Diastolic Blood Pressure,90,mmHg,90,mmHg,2026-08-31,End of study,5
SYN-2026-01,VS,SYN-2026-01-SITE-104-008,21,PULSE,Pulse Rate,50,beats/min,50,beats/min,2026-08-31,End of study,5
SYN-2026-01,VS,SYN-2026-01-SITE-104-008,22,TEMP,Temperature,36.8,C,36.8,C,2026-08-31,End of study,5
SYN-2026-01,VS,SYN-2026-01-SITE-104-008,23,WEIGHT,Weight,88.3,kg,88.3,kg,2026-08-31,End of study,5
SYN-2026-01,VS,SYN-2026-01-SITE-104-013,1,SYSBP,Systolic Blood Pressure,134,mmHg,134,mmHg,2026-03-16,Screening,1
SYN-2026-01,VS,SYN-2026-01-SITE-104-013,2,DIABP,Diastolic Blood Pressure,87,mmHg,87,mmHg,2026-03-16,Screening,1
SYN-2026-01,VS,SYN-2026-01-SITE-104-013,3,PULSE,Pulse Rate,58,beats/min,58,beats/min,2026-03-16,Screening,1
SYN-2026-01,VS,SYN-2026-01-SITE-104-013,4,WEIGHT,Weight,88.3,kg,88.3,kg,2026-03-16,Screening,1
SYN-2026-01,VS,SYN-2026-01-SITE-104-013,5,SYSBP,Systolic Blood Pressure,127,mmHg,127,mmHg,2026-03-26,Baseline / Day 1,2
SYN-2026-01,VS,SYN-2026-01-SITE-104-013,6,DIABP,Diastolic Blood Pressure,86,mmHg,86,mmHg,2026-03-26,Baseline / Day 1,2
SYN-2026-01,VS,SYN-2026-01-SITE-104-013,7,PULSE,Pulse Rate,72,beats/min,72,beats/min,2026-03-26,Baseline / Day 1,2
SYN-2026-01,VS,SYN-2026-01-SITE-104-013,8,TEMP,Temperature,37.4,C,37.4,C,2026-03-26,Baseline / Day 1,2
SYN-2026-01,VS,SYN-2026-01-SITE-104-013,9,WEIGHT,Weight,90.8,kg,90.8,kg,2026-03-26,Baseline / Day 1,2
SYN-2026-01,VS,SYN-2026-01-SITE-104-013,10,SYSBP,Systolic Blood Pressure,114,mmHg,114,mmHg,2026-04-22,Week 4,3
SYN-2026-01,VS,SYN-2026-01-SITE-104-013,11,DIABP,Diastolic Blood Pressure,90,mmHg,90,mmHg,2026-04-22,Week 4,3
SYN-2026-01,VS,SYN-2026-01-SITE-104-013,12,PULSE,Pulse Rate,70,beats/min,70,beats/min,2026-04-22,Week 4,3
SYN-2026-01,VS,SYN-2026-01-SITE-104-013,13,WEIGHT,Weight,93.2,kg,93.2,kg,2026-04-22,Week 4,3
SYN-2026-01,VS,SYN-2026-01-SITE-104-013,14,SYSBP,Systolic Blood Pressure,140,mmHg,140,mmHg,2026-06-22,Week 12,4
SYN-2026-01,VS,SYN-2026-01-SITE-104-013,15,DIABP,Diastolic Blood Pressure,84,mmHg,84,mmHg,2026-06-22,Week 12,4
SYN-2026-01,VS,SYN-2026-01-SITE-104-013,16,PULSE,Pulse Rate,71,beats/min,71,beats/min,2026-06-22,Week 12,4
SYN-2026-01,VS,SYN-2026-01-SITE-104-013,17,TEMP,Temperature,36.3,C,36.3,C,2026-06-22,Week 12,4
SYN-2026-01,VS,SYN-2026-01-SITE-104-013,18,WEIGHT,Weight,84.9,kg,84.9,kg,2026-06-22,Week 12,4
SYN-2026-01,VS,SYN-2026-01-SITE-104-013,19,SYSBP,Systolic Blood Pressure,128,mmHg,128,mmHg,2026-09-12,End of study,5
SYN-2026-01,VS,SYN-2026-01-SITE-104-013,20,DIABP,Diastolic Blood Pressure,88,mmHg,88,mmHg,2026-09-12,End of study,5
SYN-2026-01,VS,SYN-2026-01-SITE-104-013,21,PULSE,Pulse Rate,73,beats/min,73,beats/min,2026-09-12,End of study,5
SYN-2026-01,VS,SYN-2026-01-SITE-104-013,22,TEMP,Temperature,36.9,C,36.9,C,2026-09-12,End of study,5
SYN-2026-01,VS,SYN-2026-01-SITE-104-013,23,WEIGHT,Weight,49.9,kg,49.9,kg,2026-09-12,End of study,5
SYN-2026-01,VS,SYN-2026-01-SITE-104-015,1,SYSBP,Systolic Blood Pressure,138,mmHg,138,mmHg,2025-09-01,Screening,1
SYN-2026-01,VS,SYN-2026-01-SITE-104-015,2,DIABP,Diastolic Blood Pressure,79,mmHg,79,mmHg,2025-09-01,Screening,1
SYN-2026-01,VS,SYN-2026-01-SITE-104-015,3,PULSE,Pulse Rate,58,beats/min,58,beats/min,2025-09-01,Screening,1
SYN-2026-01,VS,SYN-2026-01-SITE-104-015,4,TEMP,Temperature,36.6,C,36.6,C,2025-09-01,Screening,1
SYN-2026-01,VS,SYN-2026-01-SITE-104-015,5,WEIGHT,Weight,65.9,kg,65.9,kg,2025-09-01,Screening,1
SYN-2026-01,VS,SYN-2026-01-SITE-104-015,6,SYSBP,Systolic Blood Pressure,140,mmHg,140,mmHg,2025-09-21,Baseline / Day 1,2
SYN-2026-01,VS,SYN-2026-01-SITE-104-015,7,DIABP,Diastolic Blood Pressure,87,mmHg,87,mmHg,2025-09-21,Baseline / Day 1,2
SYN-2026-01,VS,SYN-2026-01-SITE-104-015,8,PULSE,Pulse Rate,70,beats/min,70,beats/min,2025-09-21,Baseline / Day 1,2
SYN-2026-01,VS,SYN-2026-01-SITE-104-015,9,TEMP,Temperature,35.9,C,35.9,C,2025-09-21,Baseline / Day 1,2
SYN-2026-01,VS,SYN-2026-01-SITE-104-015,10,WEIGHT,Weight,88.3,kg,88.3,kg,2025-09-21,Baseline / Day 1,2
SYN-2026-01,VS,SYN-2026-01-SITE-104-015,11,SYSBP,Systolic Blood Pressure,144,mmHg,144,mmHg,2025-10-19,Week 4,3
SYN-2026-01,VS,SYN-2026-01-SITE-104-015,12,DIABP,Diastolic Blood Pressure,69,mmHg,69,mmHg,2025-10-19,Week 4,3
SYN-2026-01,VS,SYN-2026-01-SITE-104-015,13,PULSE,Pulse Rate,55,beats/min,55,beats/min,2025-10-19,Week 4,3
SYN-2026-01,VS,SYN-2026-01-SITE-104-015,14,TEMP,Temperature,36.2,C,36.2,C,2025-10-19,Week 4,3
SYN-2026-01,VS,SYN-2026-01-SITE-104-015,15,WEIGHT,Weight,76.2,kg,76.2,kg,2025-10-19,Week 4,3
SYN-2026-01,VS,SYN-2026-01-SITE-104-015,16,SYSBP,Systolic Blood Pressure,140,mmHg,140,mmHg,2025-12-14,Week 12,4
SYN-2026-01,VS,SYN-2026-01-SITE-104-015,17,DIABP,Diastolic Blood Pressure,84,mmHg,84,mmHg,2025-12-14,Week 12,4
SYN-2026-01,VS,SYN-2026-01-SITE-104-015,18,PULSE,Pulse Rate,80,beats/min,80,beats/min,2025-12-14,Week 12,4
SYN-2026-01,VS,SYN-2026-01-SITE-104-015,19,TEMP,Temperature,37.0,C,37.0,C,2025-12-14,Week 12,4
SYN-2026-01,VS,SYN-2026-01-SITE-104-015,20,WEIGHT,Weight,97.4,kg,97.4,kg,2025-12-14,Week 12,4
SYN-2026-01,VS,SYN-2026-01-SITE-104-015,21,SYSBP,Systolic Blood Pressure,115,mmHg,115,mmHg,2026-03-09,End of study,5
SYN-2026-01,VS,SYN-2026-01-SITE-104-015,22,DIABP,Diastolic Blood Pressure,80,mmHg,80,mmHg,2026-03-09,End of study,5
SYN-2026-01,VS,SYN-2026-01-SITE-104-015,23,PULSE,Pulse Rate,71,beats/min,71,beats/min,2026-03-09,End of study,5
SYN-2026-01,VS,SYN-2026-01-SITE-104-015,24,WEIGHT,Weight,75.3,kg,75.3,kg,2026-03-09,End of study,5
SYN-2026-01,VS,SYN-2026-01-SITE-104-016,1,SYSBP,Systolic Blood Pressure,133,mmHg,133,mmHg,2026-03-14,Screening,1
SYN-2026-01,VS,SYN-2026-01-SITE-104-016,2,DIABP,Diastolic Blood Pressure,63,mmHg,63,mmHg,2026-03-14,Screening,1
SYN-2026-01,VS,SYN-2026-01-SITE-104-016,3,PULSE,Pulse Rate,78,beats/min,78,beats/min,2026-03-14,Screening,1
SYN-2026-01,VS,SYN-2026-01-SITE-104-016,4,TEMP,Temperature,36.1,C,36.1,C,2026-03-14,Screening,1
SYN-2026-01,VS,SYN-2026-01-SITE-104-016,5,WEIGHT,Weight,67.0,kg,67.0,kg,2026-03-14,Screening,1
SYN-2026-01,VS,SYN-2026-01-SITE-104-016,6,SYSBP,Systolic Blood Pressure,132,mmHg,132,mmHg,2026-03-27,Baseline / Day 1,2
SYN-2026-01,VS,SYN-2026-01-SITE-104-016,7,DIABP,Diastolic Blood Pressure,67,mmHg,67,mmHg,2026-03-27,Baseline / Day 1,2
SYN-2026-01,VS,SYN-2026-01-SITE-104-016,8,PULSE,Pulse Rate,64,beats/min,64,beats/min,2026-03-27,Baseline / Day 1,2
SYN-2026-01,VS,SYN-2026-01-SITE-104-016,9,TEMP,Temperature,36.6,C,36.6,C,2026-03-27,Baseline / Day 1,2
SYN-2026-01,VS,SYN-2026-01-SITE-104-016,10,WEIGHT,Weight,72.2,kg,72.2,kg,2026-03-27,Baseline / Day 1,2
SYN-2026-01,VS,SYN-2026-01-SITE-104-016,11,SYSBP,Systolic Blood Pressure,109,mmHg,109,mmHg,2026-04-24,Week 4,3
SYN-2026-01,VS,SYN-2026-01-SITE-104-016,12,DIABP,Diastolic Blood Pressure,89,mmHg,89,mmHg,2026-04-24,Week 4,3
SYN-2026-01,VS,SYN-2026-01-SITE-104-016,13,PULSE,Pulse Rate,51,beats/min,51,beats/min,2026-04-24,Week 4,3
SYN-2026-01,VS,SYN-2026-01-SITE-104-016,14,TEMP,Temperature,36.4,C,36.4,C,2026-04-24,Week 4,3
SYN-2026-01,VS,SYN-2026-01-SITE-104-016,15,WEIGHT,Weight,67.1,kg,67.1,kg,2026-04-24,Week 4,3
SYN-2026-01,VS,SYN-2026-01-SITE-104-016,16,SYSBP,Systolic Blood Pressure,143,mmHg,143,mmHg,2026-06-22,Week 12,4
SYN-2026-01,VS,SYN-2026-01-SITE-104-016,17,DIABP,Diastolic Blood Pressure,85,mmHg,85,mmHg,2026-06-22,Week 12,4
SYN-2026-01,VS,SYN-2026-01-SITE-104-016,18,PULSE,Pulse Rate,72,beats/min,72,beats/min,2026-06-22,Week 12,4
SYN-2026-01,VS,SYN-2026-01-SITE-104-016,19,TEMP,Temperature,36.9,C,36.9,C,2026-06-22,Week 12,4
SYN-2026-01,VS,SYN-2026-01-SITE-104-016,20,WEIGHT,Weight,81.3,kg,81.3,kg,2026-06-22,Week 12,4
SYN-2026-01,VS,SYN-2026-01-SITE-104-016,21,SYSBP,Systolic Blood Pressure,133,mmHg,133,mmHg,2026-09-10,End of study,5
SYN-2026-01,VS,SYN-2026-01-SITE-104-016,22,DIABP,Diastolic Blood Pressure,78,mmHg,78,mmHg,2026-09-10,End of study,5
SYN-2026-01,VS,SYN-2026-01-SITE-104-016,23,PULSE,Pulse Rate,75,beats/min,75,beats/min,2026-09-10,End of study,5
SYN-2026-01,VS,SYN-2026-01-SITE-104-016,24,TEMP,Temperature,36.7,C,36.7,C,2026-09-10,End of study,5
SYN-2026-01,VS,SYN-2026-01-SITE-104-016,25,WEIGHT,Weight,102.1,kg,102.1,kg,2026-09-10,End of study,5
SYN-2026-01,VS,SYN-2026-01-SITE-104-019,1,SYSBP,Systolic Blood Pressure,108,mmHg,108,mmHg,2025-12-23,Screening,1
SYN-2026-01,VS,SYN-2026-01-SITE-104-019,2,DIABP,Diastolic Blood Pressure,72,mmHg,72,mmHg,2025-12-23,Screening,1
SYN-2026-01,VS,SYN-2026-01-SITE-104-019,3,PULSE,Pulse Rate,82,beats/min,82,beats/min,2025-12-23,Screening,1
SYN-2026-01,VS,SYN-2026-01-SITE-104-019,4,TEMP,Temperature,36.5,C,36.5,C,2025-12-23,Screening,1
SYN-2026-01,VS,SYN-2026-01-SITE-104-019,5,WEIGHT,Weight,79.8,kg,79.8,kg,2025-12-23,Screening,1
SYN-2026-01,VS,SYN-2026-01-SITE-104-019,6,SYSBP,Systolic Blood Pressure,153,mmHg,153,mmHg,2026-01-05,Baseline / Day 1,2
SYN-2026-01,VS,SYN-2026-01-SITE-104-019,7,DIABP,Diastolic Blood Pressure,63,mmHg,63,mmHg,2026-01-05,Baseline / Day 1,2
SYN-2026-01,VS,SYN-2026-01-SITE-104-019,8,PULSE,Pulse Rate,70,beats/min,70,beats/min,2026-01-05,Baseline / Day 1,2
SYN-2026-01,VS,SYN-2026-01-SITE-104-019,9,TEMP,Temperature,36.8,C,36.8,C,2026-01-05,Baseline / Day 1,2
SYN-2026-01,VS,SYN-2026-01-SITE-104-019,10,WEIGHT,Weight,80.1,kg,80.1,kg,2026-01-05,Baseline / Day 1,2
SYN-2026-01,VS,SYN-2026-01-SITE-104-019,11,SYSBP,Systolic Blood Pressure,116,mmHg,116,mmHg,2026-01-30,Week 4,3
SYN-2026-01,VS,SYN-2026-01-SITE-104-019,12,DIABP,Diastolic Blood Pressure,72,mmHg,72,mmHg,2026-01-30,Week 4,3
SYN-2026-01,VS,SYN-2026-01-SITE-104-019,13,PULSE,Pulse Rate,57,beats/min,57,beats/min,2026-01-30,Week 4,3
SYN-2026-01,VS,SYN-2026-01-SITE-104-019,14,TEMP,Temperature,37.2,C,37.2,C,2026-01-30,Week 4,3
SYN-2026-01,VS,SYN-2026-01-SITE-104-019,15,WEIGHT,Weight,78.6,kg,78.6,kg,2026-01-30,Week 4,3
SYN-2026-01,VS,SYN-2026-01-SITE-104-019,16,SYSBP,Systolic Blood Pressure,128,mmHg,128,mmHg,2026-03-24,Week 12,4
SYN-2026-01,VS,SYN-2026-01-SITE-104-019,17,DIABP,Diastolic Blood Pressure,83,mmHg,83,mmHg,2026-03-24,Week 12,4
SYN-2026-01,VS,SYN-2026-01-SITE-104-019,18,PULSE,Pulse Rate,79,beats/min,79,beats/min,2026-03-24,Week 12,4
SYN-2026-01,VS,SYN-2026-01-SITE-104-019,19,TEMP,Temperature,36.9,C,36.9,C,2026-03-24,Week 12,4
SYN-2026-01,VS,SYN-2026-01-SITE-104-019,20,WEIGHT,Weight,76.1,kg,76.1,kg,2026-03-24,Week 12,4
SYN-2026-01,VS,SYN-2026-01-SITE-104-019,21,SYSBP,Systolic Blood Pressure,128,mmHg,128,mmHg,2026-06-17,End of study,5
SYN-2026-01,VS,SYN-2026-01-SITE-104-019,22,DIABP,Diastolic Blood Pressure,86,mmHg,86,mmHg,2026-06-17,End of study,5
SYN-2026-01,VS,SYN-2026-01-SITE-104-019,23,PULSE,Pulse Rate,84,beats/min,84,beats/min,2026-06-17,End of study,5
SYN-2026-01,VS,SYN-2026-01-SITE-104-019,24,TEMP,Temperature,36.3,C,36.3,C,2026-06-17,End of study,5
SYN-2026-01,VS,SYN-2026-01-SITE-104-019,25,WEIGHT,Weight,80.5,kg,80.5,kg,2026-06-17,End of study,5
SYN-2026-01,VS,SYN-2026-01-SITE-104-020,1,SYSBP,Systolic Blood Pressure,121,mmHg,121,mmHg,2025-10-02,Screening,1
SYN-2026-01,VS,SYN-2026-01-SITE-104-020,2,DIABP,Diastolic Blood Pressure,62,mmHg,62,mmHg,2025-10-02,Screening,1
SYN-2026-01,VS,SYN-2026-01-SITE-104-020,3,PULSE,Pulse Rate,81,beats/min,81,beats/min,2025-10-02,Screening,1
SYN-2026-01,VS,SYN-2026-01-SITE-104-020,4,TEMP,Temperature,36.5,C,36.5,C,2025-10-02,Screening,1
SYN-2026-01,VS,SYN-2026-01-SITE-104-020,5,WEIGHT,Weight,82.9,kg,82.9,kg,2025-10-02,Screening,1
SYN-2026-01,VS,SYN-2026-01-SITE-104-020,6,SYSBP,Systolic Blood Pressure,123,mmHg,123,mmHg,2025-10-17,Baseline / Day 1,2
SYN-2026-01,VS,SYN-2026-01-SITE-104-020,7,DIABP,Diastolic Blood Pressure,87,mmHg,87,mmHg,2025-10-17,Baseline / Day 1,2
SYN-2026-01,VS,SYN-2026-01-SITE-104-020,8,PULSE,Pulse Rate,73,beats/min,73,beats/min,2025-10-17,Baseline / Day 1,2
SYN-2026-01,VS,SYN-2026-01-SITE-104-020,9,TEMP,Temperature,36.5,C,36.5,C,2025-10-17,Baseline / Day 1,2
SYN-2026-01,VS,SYN-2026-01-SITE-104-020,10,WEIGHT,Weight,62.1,kg,62.1,kg,2025-10-17,Baseline / Day 1,2
SYN-2026-01,VS,SYN-2026-01-SITE-104-020,11,SYSBP,Systolic Blood Pressure,114,mmHg,114,mmHg,2025-11-12,Week 4,3
SYN-2026-01,VS,SYN-2026-01-SITE-104-020,12,DIABP,Diastolic Blood Pressure,86,mmHg,86,mmHg,2025-11-12,Week 4,3
SYN-2026-01,VS,SYN-2026-01-SITE-104-020,13,PULSE,Pulse Rate,81,beats/min,81,beats/min,2025-11-12,Week 4,3
SYN-2026-01,VS,SYN-2026-01-SITE-104-020,14,WEIGHT,Weight,84.1,kg,84.1,kg,2025-11-12,Week 4,3
SYN-2026-01,VS,SYN-2026-01-SITE-104-020,15,SYSBP,Systolic Blood Pressure,102,mmHg,102,mmHg,2026-01-21,Week 12,4
SYN-2026-01,VS,SYN-2026-01-SITE-104-020,16,DIABP,Diastolic Blood Pressure,90,mmHg,90,mmHg,2026-01-21,Week 12,4
SYN-2026-01,VS,SYN-2026-01-SITE-104-020,17,PULSE,Pulse Rate,89,beats/min,89,beats/min,2026-01-21,Week 12,4
SYN-2026-01,VS,SYN-2026-01-SITE-104-020,18,TEMP,Temperature,36.6,C,36.6,C,2026-01-21,Week 12,4
SYN-2026-01,VS,SYN-2026-01-SITE-104-020,19,WEIGHT,Weight,80.8,kg,80.8,kg,2026-01-21,Week 12,4
SYN-2026-01,VS,SYN-2026-01-SITE-104-020,20,SYSBP,Systolic Blood Pressure,136,mmHg,136,mmHg,2026-04-03,End of study,5
SYN-2026-01,VS,SYN-2026-01-SITE-104-020,21,DIABP,Diastolic Blood Pressure,71,mmHg,71,mmHg,2026-04-03,End of study,5
SYN-2026-01,VS,SYN-2026-01-SITE-104-020,22,PULSE,Pulse Rate,88,beats/min,88,beats/min,2026-04-03,End of study,5
SYN-2026-01,VS,SYN-2026-01-SITE-104-020,23,TEMP,Temperature,36.5,C,36.5,C,2026-04-03,End of study,5
SYN-2026-01,VS,SYN-2026-01-SITE-104-020,24,WEIGHT,Weight,69.8,kg,69.8,kg,2026-04-03,End of study,5
SYN-2026-01,VS,SYN-2026-01-SITE-104-029,1,SYSBP,Systolic Blood Pressure,126,mmHg,126,mmHg,2026-03-20,Screening,1
SYN-2026-01,VS,SYN-2026-01-SITE-104-029,2,DIABP,Diastolic Blood Pressure,78,mmHg,78,mmHg,2026-03-20,Screening,1
SYN-2026-01,VS,SYN-2026-01-SITE-104-029,3,PULSE,Pulse Rate,101,beats/min,101,beats/min,2026-03-20,Screening,1
SYN-2026-01,VS,SYN-2026-01-SITE-104-029,4,TEMP,Temperature,36.7,C,36.7,C,2026-03-20,Screening,1
SYN-2026-01,VS,SYN-2026-01-SITE-104-029,5,WEIGHT,Weight,65.1,kg,65.1,kg,2026-03-20,Screening,1
SYN-2026-01,VS,SYN-2026-01-SITE-104-029,6,SYSBP,Systolic Blood Pressure,137,mmHg,137,mmHg,2026-04-03,Baseline / Day 1,2
SYN-2026-01,VS,SYN-2026-01-SITE-104-029,7,DIABP,Diastolic Blood Pressure,95,mmHg,95,mmHg,2026-04-03,Baseline / Day 1,2
SYN-2026-01,VS,SYN-2026-01-SITE-104-029,8,PULSE,Pulse Rate,59,beats/min,59,beats/min,2026-04-03,Baseline / Day 1,2
SYN-2026-01,VS,SYN-2026-01-SITE-104-029,9,TEMP,Temperature,37.4,C,37.4,C,2026-04-03,Baseline / Day 1,2
SYN-2026-01,VS,SYN-2026-01-SITE-104-029,10,WEIGHT,Weight,96.9,kg,96.9,kg,2026-04-03,Baseline / Day 1,2
SYN-2026-01,VS,SYN-2026-01-SITE-104-029,11,SYSBP,Systolic Blood Pressure,112,mmHg,112,mmHg,2026-04-27,Week 4,3
SYN-2026-01,VS,SYN-2026-01-SITE-104-029,12,DIABP,Diastolic Blood Pressure,98,mmHg,98,mmHg,2026-04-27,Week 4,3
SYN-2026-01,VS,SYN-2026-01-SITE-104-029,13,PULSE,Pulse Rate,76,beats/min,76,beats/min,2026-04-27,Week 4,3
SYN-2026-01,VS,SYN-2026-01-SITE-104-029,14,TEMP,Temperature,36.7,C,36.7,C,2026-04-27,Week 4,3
SYN-2026-01,VS,SYN-2026-01-SITE-104-029,15,WEIGHT,Weight,78.3,kg,78.3,kg,2026-04-27,Week 4,3
SYN-2026-01,VS,SYN-2026-01-SITE-104-029,16,SYSBP,Systolic Blood Pressure,138,mmHg,138,mmHg,2026-06-27,Week 12,4
SYN-2026-01,VS,SYN-2026-01-SITE-104-029,17,DIABP,Diastolic Blood Pressure,87,mmHg,87,mmHg,2026-06-27,Week 12,4
SYN-2026-01,VS,SYN-2026-01-SITE-104-029,18,PULSE,Pulse Rate,62,beats/min,62,beats/min,2026-06-27,Week 12,4
SYN-2026-01,VS,SYN-2026-01-SITE-104-029,19,TEMP,Temperature,36.5,C,36.5,C,2026-06-27,Week 12,4
SYN-2026-01,VS,SYN-2026-01-SITE-104-029,20,WEIGHT,Weight,53.5,kg,53.5,kg,2026-06-27,Week 12,4
SYN-2026-01,VS,SYN-2026-01-SITE-104-029,21,SYSBP,Systolic Blood Pressure,137,mmHg,137,mmHg,2026-09-16,End of study,5
SYN-2026-01,VS,SYN-2026-01-SITE-104-029,22,DIABP,Diastolic Blood Pressure,88,mmHg,88,mmHg,2026-09-16,End of study,5
SYN-2026-01,VS,SYN-2026-01-SITE-104-029,23,PULSE,Pulse Rate,79,beats/min,79,beats/min,2026-09-16,End of study,5
SYN-2026-01,VS,SYN-2026-01-SITE-104-029,24,TEMP,Temperature,37.2,C,37.2,C,2026-09-16,End of study,5
SYN-2026-01,VS,SYN-2026-01-SITE-104-029,25,WEIGHT,Weight,74.4,kg,74.4,kg,2026-09-16,End of study,5
SYN-2026-01,VS,SYN-2026-01-SITE-104-032,1,SYSBP,Systolic Blood Pressure,138,mmHg,138,mmHg,2026-01-08,Screening,1
SYN-2026-01,VS,SYN-2026-01-SITE-104-032,2,DIABP,Diastolic Blood Pressure,71,mmHg,71,mmHg,2026-01-08,Screening,1
SYN-2026-01,VS,SYN-2026-01-SITE-104-032,3,PULSE,Pulse Rate,75,beats/min,75,beats/min,2026-01-08,Screening,1
SYN-2026-01,VS,SYN-2026-01-SITE-104-032,4,WEIGHT,Weight,83.9,kg,83.9,kg,2026-01-08,Screening,1
SYN-2026-01,VS,SYN-2026-01-SITE-104-032,5,SYSBP,Systolic Blood Pressure,122,mmHg,122,mmHg,2026-01-20,Baseline / Day 1,2
SYN-2026-01,VS,SYN-2026-01-SITE-104-032,6,DIABP,Diastolic Blood Pressure,83,mmHg,83,mmHg,2026-01-20,Baseline / Day 1,2
SYN-2026-01,VS,SYN-2026-01-SITE-104-032,7,PULSE,Pulse Rate,61,beats/min,61,beats/min,2026-01-20,Baseline / Day 1,2
SYN-2026-01,VS,SYN-2026-01-SITE-104-032,8,TEMP,Temperature,36.0,C,36.0,C,2026-01-20,Baseline / Day 1,2
SYN-2026-01,VS,SYN-2026-01-SITE-104-032,9,WEIGHT,Weight,75.7,kg,75.7,kg,2026-01-20,Baseline / Day 1,2
SYN-2026-01,VS,SYN-2026-01-SITE-104-032,10,SYSBP,Systolic Blood Pressure,137,mmHg,137,mmHg,2026-02-17,Week 4,3
SYN-2026-01,VS,SYN-2026-01-SITE-104-032,11,DIABP,Diastolic Blood Pressure,87,mmHg,87,mmHg,2026-02-17,Week 4,3
SYN-2026-01,VS,SYN-2026-01-SITE-104-032,12,PULSE,Pulse Rate,73,beats/min,73,beats/min,2026-02-17,Week 4,3
SYN-2026-01,VS,SYN-2026-01-SITE-104-032,13,TEMP,Temperature,36.8,C,36.8,C,2026-02-17,Week 4,3
SYN-2026-01,VS,SYN-2026-01-SITE-104-032,14,WEIGHT,Weight,59.0,kg,59.0,kg,2026-02-17,Week 4,3
SYN-2026-01,VS,SYN-2026-01-SITE-104-032,15,SYSBP,Systolic Blood Pressure,118,mmHg,118,mmHg,2026-04-16,Week 12,4
SYN-2026-01,VS,SYN-2026-01-SITE-104-032,16,DIABP,Diastolic Blood Pressure,71,mmHg,71,mmHg,2026-04-16,Week 12,4
SYN-2026-01,VS,SYN-2026-01-SITE-104-032,17,PULSE,Pulse Rate,68,beats/min,68,beats/min,2026-04-16,Week 12,4
SYN-2026-01,VS,SYN-2026-01-SITE-104-032,18,TEMP,Temperature,35.7,C,35.7,C,2026-04-16,Week 12,4
SYN-2026-01,VS,SYN-2026-01-SITE-104-032,19,WEIGHT,Weight,69.2,kg,69.2,kg,2026-04-16,Week 12,4
SYN-2026-01,VS,SYN-2026-01-SITE-104-032,20,SYSBP,Systolic Blood Pressure,122,mmHg,122,mmHg,2026-07-07,End of study,5
SYN-2026-01,VS,SYN-2026-01-SITE-104-032,21,DIABP,Diastolic Blood Pressure,84,mmHg,84,mmHg,2026-07-07,End of study,5
SYN-2026-01,VS,SYN-2026-01-SITE-104-032,22,PULSE,Pulse Rate,72,beats/min,72,beats/min,2026-07-07,End of study,5
SYN-2026-01,VS,SYN-2026-01-SITE-104-032,23,WEIGHT,Weight,96.0,kg,96.0,kg,2026-07-07,End of study,5
SYN-2026-01,VS,SYN-2026-01-SITE-104-035,1,SYSBP,Systolic Blood Pressure,153,mmHg,153,mmHg,2025-09-03,Screening,1
SYN-2026-01,VS,SYN-2026-01-SITE-104-035,2,DIABP,Diastolic Blood Pressure,68,mmHg,68,mmHg,2025-09-03,Screening,1
SYN-2026-01,VS,SYN-2026-01-SITE-104-035,3,PULSE,Pulse Rate,71,beats/min,71,beats/min,2025-09-03,Screening,1
SYN-2026-01,VS,SYN-2026-01-SITE-104-035,4,TEMP,Temperature,36.8,C,36.8,C,2025-09-03,Screening,1
SYN-2026-01,VS,SYN-2026-01-SITE-104-035,5,WEIGHT,Weight,77.7,kg,77.7,kg,2025-09-03,Screening,1
SYN-2026-01,VS,SYN-2026-01-SITE-104-035,6,SYSBP,Systolic Blood Pressure,142,mmHg,142,mmHg,2025-09-24,Baseline / Day 1,2
SYN-2026-01,VS,SYN-2026-01-SITE-104-035,7,DIABP,Diastolic Blood Pressure,85,mmHg,85,mmHg,2025-09-24,Baseline / Day 1,2
SYN-2026-01,VS,SYN-2026-01-SITE-104-035,8,PULSE,Pulse Rate,76,beats/min,76,beats/min,2025-09-24,Baseline / Day 1,2
SYN-2026-01,VS,SYN-2026-01-SITE-104-035,9,TEMP,Temperature,36.7,C,36.7,C,2025-09-24,Baseline / Day 1,2
SYN-2026-01,VS,SYN-2026-01-SITE-104-035,10,WEIGHT,Weight,83.4,kg,83.4,kg,2025-09-24,Baseline / Day 1,2
SYN-2026-01,VS,SYN-2026-01-SITE-104-035,11,SYSBP,Systolic Blood Pressure,140,mmHg,140,mmHg,2025-10-26,Week 4,3
SYN-2026-01,VS,SYN-2026-01-SITE-104-035,12,DIABP,Diastolic Blood Pressure,66,mmHg,66,mmHg,2025-10-26,Week 4,3
SYN-2026-01,VS,SYN-2026-01-SITE-104-035,13,PULSE,Pulse Rate,90,beats/min,90,beats/min,2025-10-26,Week 4,3
SYN-2026-01,VS,SYN-2026-01-SITE-104-035,14,TEMP,Temperature,36.8,C,36.8,C,2025-10-26,Week 4,3
SYN-2026-01,VS,SYN-2026-01-SITE-104-035,15,WEIGHT,Weight,85.6,kg,85.6,kg,2025-10-26,Week 4,3
SYN-2026-01,VS,SYN-2026-01-SITE-104-035,16,SYSBP,Systolic Blood Pressure,128,mmHg,128,mmHg,2025-12-18,Week 12,4
SYN-2026-01,VS,SYN-2026-01-SITE-104-035,17,DIABP,Diastolic Blood Pressure,75,mmHg,75,mmHg,2025-12-18,Week 12,4
SYN-2026-01,VS,SYN-2026-01-SITE-104-035,18,PULSE,Pulse Rate,84,beats/min,84,beats/min,2025-12-18,Week 12,4
SYN-2026-01,VS,SYN-2026-01-SITE-104-035,19,WEIGHT,Weight,78.7,kg,78.7,kg,2025-12-18,Week 12,4
SYN-2026-01,VS,SYN-2026-01-SITE-104-035,20,SYSBP,Systolic Blood Pressure,105,mmHg,105,mmHg,2026-03-19,End of study,5
SYN-2026-01,VS,SYN-2026-01-SITE-104-035,21,DIABP,Diastolic Blood Pressure,90,mmHg,90,mmHg,2026-03-19,End of study,5
SYN-2026-01,VS,SYN-2026-01-SITE-104-035,22,PULSE,Pulse Rate,79,beats/min,79,beats/min,2026-03-19,End of study,5
SYN-2026-01,VS,SYN-2026-01-SITE-104-035,23,TEMP,Temperature,36.6,C,36.6,C,2026-03-19,End of study,5
SYN-2026-01,VS,SYN-2026-01-SITE-104-035,24,WEIGHT,Weight,75.5,kg,75.5,kg,2026-03-19,End of study,5
SYN-2026-01,VS,SYN-2026-01-SITE-104-038,1,SYSBP,Systolic Blood Pressure,122,mmHg,122,mmHg,2026-02-12,Screening,1
SYN-2026-01,VS,SYN-2026-01-SITE-104-038,2,DIABP,Diastolic Blood Pressure,86,mmHg,86,mmHg,2026-02-12,Screening,1
SYN-2026-01,VS,SYN-2026-01-SITE-104-038,3,PULSE,Pulse Rate,59,beats/min,59,beats/min,2026-02-12,Screening,1
SYN-2026-01,VS,SYN-2026-01-SITE-104-038,4,TEMP,Temperature,37.1,C,37.1,C,2026-02-12,Screening,1
SYN-2026-01,VS,SYN-2026-01-SITE-104-038,5,WEIGHT,Weight,82.1,kg,82.1,kg,2026-02-12,Screening,1
SYN-2026-01,VS,SYN-2026-01-SITE-104-038,6,SYSBP,Systolic Blood Pressure,113,mmHg,113,mmHg,2026-02-21,Baseline / Day 1,2
SYN-2026-01,VS,SYN-2026-01-SITE-104-038,7,DIABP,Diastolic Blood Pressure,83,mmHg,83,mmHg,2026-02-21,Baseline / Day 1,2
SYN-2026-01,VS,SYN-2026-01-SITE-104-038,8,PULSE,Pulse Rate,94,beats/min,94,beats/min,2026-02-21,Baseline / Day 1,2
SYN-2026-01,VS,SYN-2026-01-SITE-104-038,9,TEMP,Temperature,37.4,C,37.4,C,2026-02-21,Baseline / Day 1,2
SYN-2026-01,VS,SYN-2026-01-SITE-104-038,10,WEIGHT,Weight,90.7,kg,90.7,kg,2026-02-21,Baseline / Day 1,2
SYN-2026-01,VS,SYN-2026-01-SITE-104-038,11,SYSBP,Systolic Blood Pressure,156,mmHg,156,mmHg,2026-03-19,Week 4,3
SYN-2026-01,VS,SYN-2026-01-SITE-104-038,12,DIABP,Diastolic Blood Pressure,74,mmHg,74,mmHg,2026-03-19,Week 4,3
SYN-2026-01,VS,SYN-2026-01-SITE-104-038,13,PULSE,Pulse Rate,75,beats/min,75,beats/min,2026-03-19,Week 4,3
SYN-2026-01,VS,SYN-2026-01-SITE-104-038,14,WEIGHT,Weight,68.7,kg,68.7,kg,2026-03-19,Week 4,3
SYN-2026-01,VS,SYN-2026-01-SITE-104-038,15,SYSBP,Systolic Blood Pressure,121,mmHg,121,mmHg,2026-05-13,Week 12,4
SYN-2026-01,VS,SYN-2026-01-SITE-104-038,16,DIABP,Diastolic Blood Pressure,77,mmHg,77,mmHg,2026-05-13,Week 12,4
SYN-2026-01,VS,SYN-2026-01-SITE-104-038,17,PULSE,Pulse Rate,80,beats/min,80,beats/min,2026-05-13,Week 12,4
SYN-2026-01,VS,SYN-2026-01-SITE-104-038,18,TEMP,Temperature,36.6,C,36.6,C,2026-05-13,Week 12,4
SYN-2026-01,VS,SYN-2026-01-SITE-104-038,19,WEIGHT,Weight,58.6,kg,58.6,kg,2026-05-13,Week 12,4
SYN-2026-01,VS,SYN-2026-01-SITE-104-038,20,SYSBP,Systolic Blood Pressure,135,mmHg,135,mmHg,2026-08-12,End of study,5
SYN-2026-01,VS,SYN-2026-01-SITE-104-038,21,DIABP,Diastolic Blood Pressure,77,mmHg,77,mmHg,2026-08-12,End of study,5
SYN-2026-01,VS,SYN-2026-01-SITE-104-038,22,PULSE,Pulse Rate,73,beats/min,73,beats/min,2026-08-12,End of study,5
SYN-2026-01,VS,SYN-2026-01-SITE-104-038,23,WEIGHT,Weight,78.9,kg,78.9,kg,2026-08-12,End of study,5
SYN-2026-01,VS,SYN-2026-01-SITE-104-039,1,SYSBP,Systolic Blood Pressure,139,mmHg,139,mmHg,2025-09-10,Screening,1
SYN-2026-01,VS,SYN-2026-01-SITE-104-039,2,DIABP,Diastolic Blood Pressure,69,mmHg,69,mmHg,2025-09-10,Screening,1
SYN-2026-01,VS,SYN-2026-01-SITE-104-039,3,PULSE,Pulse Rate,61,beats/min,61,beats/min,2025-09-10,Screening,1
SYN-2026-01,VS,SYN-2026-01-SITE-104-039,4,TEMP,Temperature,36.4,C,36.4,C,2025-09-10,Screening,1
SYN-2026-01,VS,SYN-2026-01-SITE-104-039,5,WEIGHT,Weight,86.5,kg,86.5,kg,2025-09-10,Screening,1
SYN-2026-01,VS,SYN-2026-01-SITE-104-039,6,SYSBP,Systolic Blood Pressure,138,mmHg,138,mmHg,2025-09-22,Baseline / Day 1,2
SYN-2026-01,VS,SYN-2026-01-SITE-104-039,7,DIABP,Diastolic Blood Pressure,68,mmHg,68,mmHg,2025-09-22,Baseline / Day 1,2
SYN-2026-01,VS,SYN-2026-01-SITE-104-039,8,PULSE,Pulse Rate,69,beats/min,69,beats/min,2025-09-22,Baseline / Day 1,2
SYN-2026-01,VS,SYN-2026-01-SITE-104-039,9,TEMP,Temperature,36.4,C,36.4,C,2025-09-22,Baseline / Day 1,2
SYN-2026-01,VS,SYN-2026-01-SITE-104-039,10,WEIGHT,Weight,66.0,kg,66.0,kg,2025-09-22,Baseline / Day 1,2
SYN-2026-01,VS,SYN-2026-01-SITE-104-039,11,SYSBP,Systolic Blood Pressure,111,mmHg,111,mmHg,2025-10-20,Week 4,3
SYN-2026-01,VS,SYN-2026-01-SITE-104-039,12,DIABP,Diastolic Blood Pressure,75,mmHg,75,mmHg,2025-10-20,Week 4,3
SYN-2026-01,VS,SYN-2026-01-SITE-104-039,13,PULSE,Pulse Rate,68,beats/min,68,beats/min,2025-10-20,Week 4,3
SYN-2026-01,VS,SYN-2026-01-SITE-104-039,14,TEMP,Temperature,35.8,C,35.8,C,2025-10-20,Week 4,3
SYN-2026-01,VS,SYN-2026-01-SITE-104-039,15,WEIGHT,Weight,58.2,kg,58.2,kg,2025-10-20,Week 4,3
SYN-2026-01,VS,SYN-2026-01-SITE-104-039,16,SYSBP,Systolic Blood Pressure,154,mmHg,154,mmHg,2025-12-18,Week 12,4
SYN-2026-01,VS,SYN-2026-01-SITE-104-039,17,DIABP,Diastolic Blood Pressure,79,mmHg,79,mmHg,2025-12-18,Week 12,4
SYN-2026-01,VS,SYN-2026-01-SITE-104-039,18,PULSE,Pulse Rate,59,beats/min,59,beats/min,2025-12-18,Week 12,4
SYN-2026-01,VS,SYN-2026-01-SITE-104-039,19,TEMP,Temperature,36.0,C,36.0,C,2025-12-18,Week 12,4
SYN-2026-01,VS,SYN-2026-01-SITE-104-039,20,WEIGHT,Weight,77.3,kg,77.3,kg,2025-12-18,Week 12,4
SYN-2026-01,VS,SYN-2026-01-SITE-104-039,21,SYSBP,Systolic Blood Pressure,125,mmHg,125,mmHg,2026-03-04,End of study,5
SYN-2026-01,VS,SYN-2026-01-SITE-104-039,22,DIABP,Diastolic Blood Pressure,98,mmHg,98,mmHg,2026-03-04,End of study,5
SYN-2026-01,VS,SYN-2026-01-SITE-104-039,23,PULSE,Pulse Rate,60,beats/min,60,beats/min,2026-03-04,End of study,5
SYN-2026-01,VS,SYN-2026-01-SITE-104-039,24,WEIGHT,Weight,78.0,kg,78.0,kg,2026-03-04,End of study,5
SYN-2026-01,VS,SYN-2026-01-SITE-104-045,1,SYSBP,Systolic Blood Pressure,118,mmHg,118,mmHg,2025-11-08,Screening,1
SYN-2026-01,VS,SYN-2026-01-SITE-104-045,2,DIABP,Diastolic Blood Pressure,81,mmHg,81,mmHg,2025-11-08,Screening,1
SYN-2026-01,VS,SYN-2026-01-SITE-104-045,3,PULSE,Pulse Rate,67,beats/min,67,beats/min,2025-11-08,Screening,1
SYN-2026-01,VS,SYN-2026-01-SITE-104-045,4,TEMP,Temperature,36.8,C,36.8,C,2025-11-08,Screening,1
SYN-2026-01,VS,SYN-2026-01-SITE-104-045,5,WEIGHT,Weight,58.6,kg,58.6,kg,2025-11-08,Screening,1
SYN-2026-01,VS,SYN-2026-01-SITE-104-045,6,SYSBP,Systolic Blood Pressure,141,mmHg,141,mmHg,2025-11-24,Baseline / Day 1,2
SYN-2026-01,VS,SYN-2026-01-SITE-104-045,7,DIABP,Diastolic Blood Pressure,83,mmHg,83,mmHg,2025-11-24,Baseline / Day 1,2
SYN-2026-01,VS,SYN-2026-01-SITE-104-045,8,PULSE,Pulse Rate,84,beats/min,84,beats/min,2025-11-24,Baseline / Day 1,2
SYN-2026-01,VS,SYN-2026-01-SITE-104-045,9,TEMP,Temperature,36.9,C,36.9,C,2025-11-24,Baseline / Day 1,2
SYN-2026-01,VS,SYN-2026-01-SITE-104-045,10,WEIGHT,Weight,75.0,kg,75.0,kg,2025-11-24,Baseline / Day 1,2
SYN-2026-01,VS,SYN-2026-01-SITE-104-045,11,SYSBP,Systolic Blood Pressure,148,mmHg,148,mmHg,2025-12-19,Week 4,3
SYN-2026-01,VS,SYN-2026-01-SITE-104-045,12,DIABP,Diastolic Blood Pressure,75,mmHg,75,mmHg,2025-12-19,Week 4,3
SYN-2026-01,VS,SYN-2026-01-SITE-104-045,13,PULSE,Pulse Rate,61,beats/min,61,beats/min,2025-12-19,Week 4,3
SYN-2026-01,VS,SYN-2026-01-SITE-104-045,14,TEMP,Temperature,36.7,C,36.7,C,2025-12-19,Week 4,3
SYN-2026-01,VS,SYN-2026-01-SITE-104-045,15,WEIGHT,Weight,87.5,kg,87.5,kg,2025-12-19,Week 4,3
SYN-2026-01,VS,SYN-2026-01-SITE-104-045,16,SYSBP,Systolic Blood Pressure,128,mmHg,128,mmHg,2026-02-15,Week 12,4
SYN-2026-01,VS,SYN-2026-01-SITE-104-045,17,DIABP,Diastolic Blood Pressure,95,mmHg,95,mmHg,2026-02-15,Week 12,4
SYN-2026-01,VS,SYN-2026-01-SITE-104-045,18,PULSE,Pulse Rate,92,beats/min,92,beats/min,2026-02-15,Week 12,4
SYN-2026-01,VS,SYN-2026-01-SITE-104-045,19,TEMP,Temperature,37.0,C,37.0,C,2026-02-15,Week 12,4
SYN-2026-01,VS,SYN-2026-01-SITE-104-045,20,WEIGHT,Weight,88.0,kg,88.0,kg,2026-02-15,Week 12,4
SYN-2026-01,VS,SYN-2026-01-SITE-104-045,21,SYSBP,Systolic Blood Pressure,117,mmHg,117,mmHg,2026-05-14,End of study,5
SYN-2026-01,VS,SYN-2026-01-SITE-104-045,22,DIABP,Diastolic Blood Pressure,75,mmHg,75,mmHg,2026-05-14,End of study,5
SYN-2026-01,VS,SYN-2026-01-SITE-104-045,23,PULSE,Pulse Rate,72,beats/min,72,beats/min,2026-05-14,End of study,5
SYN-2026-01,VS,SYN-2026-01-SITE-104-045,24,TEMP,Temperature,36.4,C,36.4,C,2026-05-14,End of study,5
SYN-2026-01,VS,SYN-2026-01-SITE-104-045,25,WEIGHT,Weight,66.2,kg,66.2,kg,2026-05-14,End of study,5
SYN-2026-01,VS,SYN-2026-01-SITE-104-047,1,SYSBP,Systolic Blood Pressure,124,mmHg,124,mmHg,2025-10-11,Screening,1
SYN-2026-01,VS,SYN-2026-01-SITE-104-047,2,DIABP,Diastolic Blood Pressure,66,mmHg,66,mmHg,2025-10-11,Screening,1
SYN-2026-01,VS,SYN-2026-01-SITE-104-047,3,PULSE,Pulse Rate,82,beats/min,82,beats/min,2025-10-11,Screening,1
SYN-2026-01,VS,SYN-2026-01-SITE-104-047,4,TEMP,Temperature,36.9,C,36.9,C,2025-10-11,Screening,1
SYN-2026-01,VS,SYN-2026-01-SITE-104-047,5,WEIGHT,Weight,72.4,kg,72.4,kg,2025-10-11,Screening,1
SYN-2026-01,VS,SYN-2026-01-SITE-104-047,6,SYSBP,Systolic Blood Pressure,122,mmHg,122,mmHg,2025-10-28,Baseline / Day 1,2
SYN-2026-01,VS,SYN-2026-01-SITE-104-047,7,DIABP,Diastolic Blood Pressure,83,mmHg,83,mmHg,2025-10-28,Baseline / Day 1,2
SYN-2026-01,VS,SYN-2026-01-SITE-104-047,8,PULSE,Pulse Rate,84,beats/min,84,beats/min,2025-10-28,Baseline / Day 1,2
SYN-2026-01,VS,SYN-2026-01-SITE-104-047,9,TEMP,Temperature,36.3,C,36.3,C,2025-10-28,Baseline / Day 1,2
SYN-2026-01,VS,SYN-2026-01-SITE-104-047,10,WEIGHT,Weight,91.6,kg,91.6,kg,2025-10-28,Baseline / Day 1,2
SYN-2026-01,VS,SYN-2026-01-SITE-104-047,11,SYSBP,Systolic Blood Pressure,68,mmHg,68,mmHg,2025-11-26,Week 4,3
SYN-2026-01,VS,SYN-2026-01-SITE-104-047,12,DIABP,Diastolic Blood Pressure,131,mmHg,131,mmHg,2025-11-26,Week 4,3
SYN-2026-01,VS,SYN-2026-01-SITE-104-047,13,PULSE,Pulse Rate,80,beats/min,80,beats/min,2025-11-26,Week 4,3
SYN-2026-01,VS,SYN-2026-01-SITE-104-047,14,TEMP,Temperature,36.4,C,36.4,C,2025-11-26,Week 4,3
SYN-2026-01,VS,SYN-2026-01-SITE-104-047,15,WEIGHT,Weight,86.6,kg,86.6,kg,2025-11-26,Week 4,3
SYN-2026-01,VS,SYN-2026-01-SITE-104-047,16,SYSBP,Systolic Blood Pressure,146,mmHg,146,mmHg,2026-01-18,Week 12,4
SYN-2026-01,VS,SYN-2026-01-SITE-104-047,17,DIABP,Diastolic Blood Pressure,76,mmHg,76,mmHg,2026-01-18,Week 12,4
SYN-2026-01,VS,SYN-2026-01-SITE-104-047,18,PULSE,Pulse Rate,77,beats/min,77,beats/min,2026-01-18,Week 12,4
SYN-2026-01,VS,SYN-2026-01-SITE-104-047,19,TEMP,Temperature,36.2,C,36.2,C,2026-01-18,Week 12,4
SYN-2026-01,VS,SYN-2026-01-SITE-104-047,20,WEIGHT,Weight,89.2,kg,89.2,kg,2026-01-18,Week 12,4
SYN-2026-01,VS,SYN-2026-01-SITE-104-047,21,SYSBP,Systolic Blood Pressure,127,mmHg,127,mmHg,2026-04-10,End of study,5
SYN-2026-01,VS,SYN-2026-01-SITE-104-047,22,DIABP,Diastolic Blood Pressure,63,mmHg,63,mmHg,2026-04-10,End of study,5
SYN-2026-01,VS,SYN-2026-01-SITE-104-047,23,PULSE,Pulse Rate,77,beats/min,77,beats/min,2026-04-10,End of study,5
SYN-2026-01,VS,SYN-2026-01-SITE-104-047,24,TEMP,Temperature,36.9,C,36.9,C,2026-04-10,End of study,5
SYN-2026-01,VS,SYN-2026-01-SITE-104-047,25,WEIGHT,Weight,73.9,kg,73.9,kg,2026-04-10,End of study,5
SYN-2026-01,VS,SYN-2026-01-SITE-104-051,1,SYSBP,Systolic Blood Pressure,124,mmHg,124,mmHg,2025-12-13,Screening,1
SYN-2026-01,VS,SYN-2026-01-SITE-104-051,2,DIABP,Diastolic Blood Pressure,65,mmHg,65,mmHg,2025-12-13,Screening,1
SYN-2026-01,VS,SYN-2026-01-SITE-104-051,3,PULSE,Pulse Rate,66,beats/min,66,beats/min,2025-12-13,Screening,1
SYN-2026-01,VS,SYN-2026-01-SITE-104-051,4,TEMP,Temperature,37.6,C,37.6,C,2025-12-13,Screening,1
SYN-2026-01,VS,SYN-2026-01-SITE-104-051,5,WEIGHT,Weight,73.1,kg,73.1,kg,2025-12-13,Screening,1
SYN-2026-01,VS,SYN-2026-01-SITE-104-051,6,SYSBP,Systolic Blood Pressure,129,mmHg,129,mmHg,2025-12-25,Baseline / Day 1,2
SYN-2026-01,VS,SYN-2026-01-SITE-104-051,7,DIABP,Diastolic Blood Pressure,77,mmHg,77,mmHg,2025-12-25,Baseline / Day 1,2
SYN-2026-01,VS,SYN-2026-01-SITE-104-051,8,PULSE,Pulse Rate,83,beats/min,83,beats/min,2025-12-25,Baseline / Day 1,2
SYN-2026-01,VS,SYN-2026-01-SITE-104-051,9,TEMP,Temperature,36.8,C,36.8,C,2025-12-25,Baseline / Day 1,2
SYN-2026-01,VS,SYN-2026-01-SITE-104-051,10,WEIGHT,Weight,78.4,kg,78.4,kg,2025-12-25,Baseline / Day 1,2
SYN-2026-01,VS,SYN-2026-01-SITE-104-051,11,SYSBP,Systolic Blood Pressure,121,mmHg,121,mmHg,2026-01-24,Week 4,3
SYN-2026-01,VS,SYN-2026-01-SITE-104-051,12,DIABP,Diastolic Blood Pressure,81,mmHg,81,mmHg,2026-01-24,Week 4,3
SYN-2026-01,VS,SYN-2026-01-SITE-104-051,13,PULSE,Pulse Rate,74,beats/min,74,beats/min,2026-01-24,Week 4,3
SYN-2026-01,VS,SYN-2026-01-SITE-104-051,14,TEMP,Temperature,37.0,C,37.0,C,2026-01-24,Week 4,3
SYN-2026-01,VS,SYN-2026-01-SITE-104-051,15,WEIGHT,Weight,85.1,kg,85.1,kg,2026-01-24,Week 4,3
SYN-2026-01,VS,SYN-2026-01-SITE-104-051,16,SYSBP,Systolic Blood Pressure,110,mmHg,110,mmHg,2026-03-13,Week 12,4
SYN-2026-01,VS,SYN-2026-01-SITE-104-051,17,DIABP,Diastolic Blood Pressure,84,mmHg,84,mmHg,2026-03-13,Week 12,4
SYN-2026-01,VS,SYN-2026-01-SITE-104-051,18,PULSE,Pulse Rate,82,beats/min,82,beats/min,2026-03-13,Week 12,4
SYN-2026-01,VS,SYN-2026-01-SITE-104-051,19,TEMP,Temperature,36.4,C,36.4,C,2026-03-13,Week 12,4
SYN-2026-01,VS,SYN-2026-01-SITE-104-051,20,WEIGHT,Weight,98.0,kg,98.0,kg,2026-03-13,Week 12,4
SYN-2026-01,VS,SYN-2026-01-SITE-104-051,21,SYSBP,Systolic Blood Pressure,136,mmHg,136,mmHg,2026-06-10,End of study,5
SYN-2026-01,VS,SYN-2026-01-SITE-104-051,22,DIABP,Diastolic Blood Pressure,75,mmHg,75,mmHg,2026-06-10,End of study,5
SYN-2026-01,VS,SYN-2026-01-SITE-104-051,23,PULSE,Pulse Rate,87,beats/min,87,beats/min,2026-06-10,End of study,5
SYN-2026-01,VS,SYN-2026-01-SITE-104-051,24,TEMP,Temperature,36.9,C,36.9,C,2026-06-10,End of study,5
SYN-2026-01,VS,SYN-2026-01-SITE-104-051,25,WEIGHT,Weight,74.2,kg,74.2,kg,2026-06-10,End of study,5
SYN-2026-01,VS,SYN-2026-01-SITE-104-052,1,SYSBP,Systolic Blood Pressure,125,mmHg,125,mmHg,2026-03-27,Screening,1
SYN-2026-01,VS,SYN-2026-01-SITE-104-052,2,DIABP,Diastolic Blood Pressure,83,mmHg,83,mmHg,2026-03-27,Screening,1
SYN-2026-01,VS,SYN-2026-01-SITE-104-052,3,PULSE,Pulse Rate,76,beats/min,76,beats/min,2026-03-27,Screening,1
SYN-2026-01,VS,SYN-2026-01-SITE-104-052,4,TEMP,Temperature,36.8,C,36.8,C,2026-03-27,Screening,1
SYN-2026-01,VS,SYN-2026-01-SITE-104-052,5,WEIGHT,Weight,84.0,kg,84.0,kg,2026-03-27,Screening,1
SYN-2026-01,VS,SYN-2026-01-SITE-104-052,6,SYSBP,Systolic Blood Pressure,107,mmHg,107,mmHg,2026-04-11,Baseline / Day 1,2
SYN-2026-01,VS,SYN-2026-01-SITE-104-052,7,DIABP,Diastolic Blood Pressure,85,mmHg,85,mmHg,2026-04-11,Baseline / Day 1,2
SYN-2026-01,VS,SYN-2026-01-SITE-104-052,8,PULSE,Pulse Rate,60,beats/min,60,beats/min,2026-04-11,Baseline / Day 1,2
SYN-2026-01,VS,SYN-2026-01-SITE-104-052,9,TEMP,Temperature,36.2,C,36.2,C,2026-04-11,Baseline / Day 1,2
SYN-2026-01,VS,SYN-2026-01-SITE-104-052,10,WEIGHT,Weight,59.2,kg,59.2,kg,2026-04-11,Baseline / Day 1,2
SYN-2026-01,VS,SYN-2026-01-SITE-104-056,1,SYSBP,Systolic Blood Pressure,116,mmHg,116,mmHg,2025-11-12,Screening,1
SYN-2026-01,VS,SYN-2026-01-SITE-104-056,2,DIABP,Diastolic Blood Pressure,73,mmHg,73,mmHg,2025-11-12,Screening,1
SYN-2026-01,VS,SYN-2026-01-SITE-104-056,3,PULSE,Pulse Rate,92,beats/min,92,beats/min,2025-11-12,Screening,1
SYN-2026-01,VS,SYN-2026-01-SITE-104-056,4,TEMP,Temperature,36.1,C,36.1,C,2025-11-12,Screening,1
SYN-2026-01,VS,SYN-2026-01-SITE-104-056,5,WEIGHT,Weight,53.8,kg,53.8,kg,2025-11-12,Screening,1
SYN-2026-01,VS,SYN-2026-01-SITE-104-056,6,SYSBP,Systolic Blood Pressure,137,mmHg,137,mmHg,2025-11-26,Baseline / Day 1,2
SYN-2026-01,VS,SYN-2026-01-SITE-104-056,7,DIABP,Diastolic Blood Pressure,73,mmHg,73,mmHg,2025-11-26,Baseline / Day 1,2
SYN-2026-01,VS,SYN-2026-01-SITE-104-056,8,PULSE,Pulse Rate,56,beats/min,56,beats/min,2025-11-26,Baseline / Day 1,2
SYN-2026-01,VS,SYN-2026-01-SITE-104-056,9,TEMP,Temperature,37.1,C,37.1,C,2025-11-26,Baseline / Day 1,2
SYN-2026-01,VS,SYN-2026-01-SITE-104-056,10,WEIGHT,Weight,62.2,kg,62.2,kg,2025-11-26,Baseline / Day 1,2
SYN-2026-01,VS,SYN-2026-01-SITE-104-056,11,SYSBP,Systolic Blood Pressure,104,mmHg,104,mmHg,2025-12-24,Week 4,3
SYN-2026-01,VS,SYN-2026-01-SITE-104-056,12,DIABP,Diastolic Blood Pressure,78,mmHg,78,mmHg,2025-12-24,Week 4,3
SYN-2026-01,VS,SYN-2026-01-SITE-104-056,13,PULSE,Pulse Rate,87,beats/min,87,beats/min,2025-12-24,Week 4,3
SYN-2026-01,VS,SYN-2026-01-SITE-104-056,14,TEMP,Temperature,36.1,C,36.1,C,2025-12-24,Week 4,3
SYN-2026-01,VS,SYN-2026-01-SITE-104-056,15,WEIGHT,Weight,77.2,kg,77.2,kg,2025-12-24,Week 4,3
SYN-2026-01,VS,SYN-2026-01-SITE-104-060,1,SYSBP,Systolic Blood Pressure,150,mmHg,150,mmHg,2025-10-01,Screening,1
SYN-2026-01,VS,SYN-2026-01-SITE-104-060,2,DIABP,Diastolic Blood Pressure,77,mmHg,77,mmHg,2025-10-01,Screening,1
SYN-2026-01,VS,SYN-2026-01-SITE-104-060,3,PULSE,Pulse Rate,77,beats/min,77,beats/min,2025-10-01,Screening,1
SYN-2026-01,VS,SYN-2026-01-SITE-104-060,4,TEMP,Temperature,36.8,C,36.8,C,2025-10-01,Screening,1
SYN-2026-01,VS,SYN-2026-01-SITE-104-060,5,WEIGHT,Weight,85.1,kg,85.1,kg,2025-10-01,Screening,1
SYN-2026-01,VS,SYN-2026-01-SITE-104-060,6,SYSBP,Systolic Blood Pressure,118,mmHg,118,mmHg,2025-10-18,Baseline / Day 1,2
SYN-2026-01,VS,SYN-2026-01-SITE-104-060,7,DIABP,Diastolic Blood Pressure,79,mmHg,79,mmHg,2025-10-18,Baseline / Day 1,2
SYN-2026-01,VS,SYN-2026-01-SITE-104-060,8,PULSE,Pulse Rate,74,beats/min,74,beats/min,2025-10-18,Baseline / Day 1,2
SYN-2026-01,VS,SYN-2026-01-SITE-104-060,9,TEMP,Temperature,36.9,C,36.9,C,2025-10-18,Baseline / Day 1,2
SYN-2026-01,VS,SYN-2026-01-SITE-104-060,10,WEIGHT,Weight,103.0,kg,103.0,kg,2025-10-18,Baseline / Day 1,2
SYN-2026-01,VS,SYN-2026-01-SITE-104-060,11,SYSBP,Systolic Blood Pressure,131,mmHg,131,mmHg,2025-11-16,Week 4,3
SYN-2026-01,VS,SYN-2026-01-SITE-104-060,12,DIABP,Diastolic Blood Pressure,87,mmHg,87,mmHg,2025-11-16,Week 4,3
SYN-2026-01,VS,SYN-2026-01-SITE-104-060,13,PULSE,Pulse Rate,85,beats/min,85,beats/min,2025-11-16,Week 4,3
SYN-2026-01,VS,SYN-2026-01-SITE-104-060,14,TEMP,Temperature,36.6,C,36.6,C,2025-11-16,Week 4,3
SYN-2026-01,VS,SYN-2026-01-SITE-104-060,15,WEIGHT,Weight,70.1,kg,70.1,kg,2025-11-16,Week 4,3
SYN-2026-01,VS,SYN-2026-01-SITE-104-060,16,SYSBP,Systolic Blood Pressure,123,mmHg,123,mmHg,2026-01-11,Week 12,4
SYN-2026-01,VS,SYN-2026-01-SITE-104-060,17,DIABP,Diastolic Blood Pressure,77,mmHg,77,mmHg,2026-01-11,Week 12,4
SYN-2026-01,VS,SYN-2026-01-SITE-104-060,18,PULSE,Pulse Rate,70,beats/min,70,beats/min,2026-01-11,Week 12,4
SYN-2026-01,VS,SYN-2026-01-SITE-104-060,19,TEMP,Temperature,37.0,C,37.0,C,2026-01-11,Week 12,4
SYN-2026-01,VS,SYN-2026-01-SITE-104-060,20,WEIGHT,Weight,85.2,kg,85.2,kg,2026-01-11,Week 12,4
SYN-2026-01,VS,SYN-2026-01-SITE-104-066,1,SYSBP,Systolic Blood Pressure,116,mmHg,116,mmHg,2025-11-20,Screening,1
SYN-2026-01,VS,SYN-2026-01-SITE-104-066,2,DIABP,Diastolic Blood Pressure,72,mmHg,72,mmHg,2025-11-20,Screening,1
SYN-2026-01,VS,SYN-2026-01-SITE-104-066,3,PULSE,Pulse Rate,53,beats/min,53,beats/min,2025-11-20,Screening,1
SYN-2026-01,VS,SYN-2026-01-SITE-104-066,4,TEMP,Temperature,36.8,C,36.8,C,2025-11-20,Screening,1
SYN-2026-01,VS,SYN-2026-01-SITE-104-066,5,WEIGHT,Weight,75.8,kg,75.8,kg,2025-11-20,Screening,1
SYN-2026-01,VS,SYN-2026-01-SITE-104-066,6,SYSBP,Systolic Blood Pressure,156,mmHg,156,mmHg,2025-12-11,Baseline / Day 1,2
SYN-2026-01,VS,SYN-2026-01-SITE-104-066,7,DIABP,Diastolic Blood Pressure,80,mmHg,80,mmHg,2025-12-11,Baseline / Day 1,2
SYN-2026-01,VS,SYN-2026-01-SITE-104-066,8,PULSE,Pulse Rate,67,beats/min,67,beats/min,2025-12-11,Baseline / Day 1,2
SYN-2026-01,VS,SYN-2026-01-SITE-104-066,9,TEMP,Temperature,36.3,C,36.3,C,2025-12-11,Baseline / Day 1,2
SYN-2026-01,VS,SYN-2026-01-SITE-104-066,10,WEIGHT,Weight,84.1,kg,84.1,kg,2025-12-11,Baseline / Day 1,2
SYN-2026-01,VS,SYN-2026-01-SITE-104-066,11,SYSBP,Systolic Blood Pressure,123,mmHg,123,mmHg,2026-01-06,Week 4,3
SYN-2026-01,VS,SYN-2026-01-SITE-104-066,12,DIABP,Diastolic Blood Pressure,85,mmHg,85,mmHg,2026-01-06,Week 4,3
SYN-2026-01,VS,SYN-2026-01-SITE-104-066,13,PULSE,Pulse Rate,82,beats/min,82,beats/min,2026-01-06,Week 4,3
SYN-2026-01,VS,SYN-2026-01-SITE-104-066,14,TEMP,Temperature,36.5,C,36.5,C,2026-01-06,Week 4,3
SYN-2026-01,VS,SYN-2026-01-SITE-104-066,15,WEIGHT,Weight,87.9,kg,87.9,kg,2026-01-06,Week 4,3
SYN-2026-01,VS,SYN-2026-01-SITE-104-068,1,SYSBP,Systolic Blood Pressure,132,mmHg,132,mmHg,2025-12-24,Screening,1
SYN-2026-01,VS,SYN-2026-01-SITE-104-068,2,DIABP,Diastolic Blood Pressure,87,mmHg,87,mmHg,2025-12-24,Screening,1
SYN-2026-01,VS,SYN-2026-01-SITE-104-068,3,PULSE,Pulse Rate,68,beats/min,68,beats/min,2025-12-24,Screening,1
SYN-2026-01,VS,SYN-2026-01-SITE-104-068,4,TEMP,Temperature,36.5,C,36.5,C,2025-12-24,Screening,1
SYN-2026-01,VS,SYN-2026-01-SITE-104-068,5,WEIGHT,Weight,65.6,kg,65.6,kg,2025-12-24,Screening,1
SYN-2026-01,VS,SYN-2026-01-SITE-104-068,6,SYSBP,Systolic Blood Pressure,124,mmHg,124,mmHg,2026-01-02,Baseline / Day 1,2
SYN-2026-01,VS,SYN-2026-01-SITE-104-068,7,DIABP,Diastolic Blood Pressure,91,mmHg,91,mmHg,2026-01-02,Baseline / Day 1,2
SYN-2026-01,VS,SYN-2026-01-SITE-104-068,8,PULSE,Pulse Rate,68,beats/min,68,beats/min,2026-01-02,Baseline / Day 1,2
SYN-2026-01,VS,SYN-2026-01-SITE-104-068,9,TEMP,Temperature,36.4,C,36.4,C,2026-01-02,Baseline / Day 1,2
SYN-2026-01,VS,SYN-2026-01-SITE-104-068,10,WEIGHT,Weight,69.3,kg,69.3,kg,2026-01-02,Baseline / Day 1,2
SYN-2026-01,VS,SYN-2026-01-SITE-104-068,11,SYSBP,Systolic Blood Pressure,124,mmHg,124,mmHg,2026-01-28,Week 4,3
SYN-2026-01,VS,SYN-2026-01-SITE-104-068,12,DIABP,Diastolic Blood Pressure,68,mmHg,68,mmHg,2026-01-28,Week 4,3
SYN-2026-01,VS,SYN-2026-01-SITE-104-068,13,PULSE,Pulse Rate,69,beats/min,69,beats/min,2026-01-28,Week 4,3
SYN-2026-01,VS,SYN-2026-01-SITE-104-068,14,TEMP,Temperature,35.8,C,35.8,C,2026-01-28,Week 4,3
SYN-2026-01,VS,SYN-2026-01-SITE-104-068,15,WEIGHT,Weight,78.7,kg,78.7,kg,2026-01-28,Week 4,3
SYN-2026-01,VS,SYN-2026-01-SITE-104-068,16,SYSBP,Systolic Blood Pressure,133,mmHg,133,mmHg,2026-03-27,Week 12,4
SYN-2026-01,VS,SYN-2026-01-SITE-104-068,17,DIABP,Diastolic Blood Pressure,81,mmHg,81,mmHg,2026-03-27,Week 12,4
SYN-2026-01,VS,SYN-2026-01-SITE-104-068,18,PULSE,Pulse Rate,96,beats/min,96,beats/min,2026-03-27,Week 12,4
SYN-2026-01,VS,SYN-2026-01-SITE-104-068,19,TEMP,Temperature,36.4,C,36.4,C,2026-03-27,Week 12,4
SYN-2026-01,VS,SYN-2026-01-SITE-104-068,20,WEIGHT,Weight,78.3,kg,78.3,kg,2026-03-27,Week 12,4
SYN-2026-01,VS,SYN-2026-01-SITE-104-068,21,SYSBP,Systolic Blood Pressure,136,mmHg,136,mmHg,2026-06-15,End of study,5
SYN-2026-01,VS,SYN-2026-01-SITE-104-068,22,DIABP,Diastolic Blood Pressure,71,mmHg,71,mmHg,2026-06-15,End of study,5
SYN-2026-01,VS,SYN-2026-01-SITE-104-068,23,PULSE,Pulse Rate,68,beats/min,68,beats/min,2026-06-15,End of study,5
SYN-2026-01,VS,SYN-2026-01-SITE-104-068,24,TEMP,Temperature,37.0,C,37.0,C,2026-06-15,End of study,5
SYN-2026-01,VS,SYN-2026-01-SITE-104-068,25,WEIGHT,Weight,75.5,kg,75.5,kg,2026-06-15,End of study,5
SYN-2026-01,VS,SYN-2026-01-SITE-104-073,1,SYSBP,Systolic Blood Pressure,116,mmHg,116,mmHg,2025-11-23,Screening,1
SYN-2026-01,VS,SYN-2026-01-SITE-104-073,2,DIABP,Diastolic Blood Pressure,88,mmHg,88,mmHg,2025-11-23,Screening,1
SYN-2026-01,VS,SYN-2026-01-SITE-104-073,3,PULSE,Pulse Rate,53,beats/min,53,beats/min,2025-11-23,Screening,1
SYN-2026-01,VS,SYN-2026-01-SITE-104-073,4,TEMP,Temperature,37.5,C,37.5,C,2025-11-23,Screening,1
SYN-2026-01,VS,SYN-2026-01-SITE-104-073,5,WEIGHT,Weight,78.0,kg,78.0,kg,2025-11-23,Screening,1
SYN-2026-01,VS,SYN-2026-01-SITE-104-073,6,SYSBP,Systolic Blood Pressure,121,mmHg,121,mmHg,2025-12-04,Baseline / Day 1,2
SYN-2026-01,VS,SYN-2026-01-SITE-104-073,7,DIABP,Diastolic Blood Pressure,90,mmHg,90,mmHg,2025-12-04,Baseline / Day 1,2
SYN-2026-01,VS,SYN-2026-01-SITE-104-073,8,PULSE,Pulse Rate,71,beats/min,71,beats/min,2025-12-04,Baseline / Day 1,2
SYN-2026-01,VS,SYN-2026-01-SITE-104-073,9,TEMP,Temperature,37.1,C,37.1,C,2025-12-04,Baseline / Day 1,2
SYN-2026-01,VS,SYN-2026-01-SITE-104-073,10,WEIGHT,Weight,91.8,kg,91.8,kg,2025-12-04,Baseline / Day 1,2
SYN-2026-01,VS,SYN-2026-01-SITE-104-073,11,SYSBP,Systolic Blood Pressure,99,mmHg,99,mmHg,2025-12-31,Week 4,3
SYN-2026-01,VS,SYN-2026-01-SITE-104-073,12,DIABP,Diastolic Blood Pressure,72,mmHg,72,mmHg,2025-12-31,Week 4,3
SYN-2026-01,VS,SYN-2026-01-SITE-104-073,13,PULSE,Pulse Rate,63,beats/min,63,beats/min,2025-12-31,Week 4,3
SYN-2026-01,VS,SYN-2026-01-SITE-104-073,14,TEMP,Temperature,36.6,C,36.6,C,2025-12-31,Week 4,3
SYN-2026-01,VS,SYN-2026-01-SITE-104-073,15,WEIGHT,Weight,60.0,kg,60.0,kg,2025-12-31,Week 4,3
SYN-2026-01,VS,SYN-2026-01-SITE-104-073,16,SYSBP,Systolic Blood Pressure,138,mmHg,138,mmHg,2026-03-02,Week 12,4
SYN-2026-01,VS,SYN-2026-01-SITE-104-073,17,DIABP,Diastolic Blood Pressure,89,mmHg,89,mmHg,2026-03-02,Week 12,4
SYN-2026-01,VS,SYN-2026-01-SITE-104-073,18,PULSE,Pulse Rate,75,beats/min,75,beats/min,2026-03-02,Week 12,4
SYN-2026-01,VS,SYN-2026-01-SITE-104-073,19,TEMP,Temperature,37.0,C,37.0,C,2026-03-02,Week 12,4
SYN-2026-01,VS,SYN-2026-01-SITE-104-073,20,WEIGHT,Weight,65.7,kg,65.7,kg,2026-03-02,Week 12,4
SYN-2026-01,VS,SYN-2026-01-SITE-104-073,21,SYSBP,Systolic Blood Pressure,141,mmHg,141,mmHg,2026-05-22,End of study,5
SYN-2026-01,VS,SYN-2026-01-SITE-104-073,22,DIABP,Diastolic Blood Pressure,80,mmHg,80,mmHg,2026-05-22,End of study,5
SYN-2026-01,VS,SYN-2026-01-SITE-104-073,23,PULSE,Pulse Rate,85,beats/min,85,beats/min,2026-05-22,End of study,5
SYN-2026-01,VS,SYN-2026-01-SITE-104-073,24,TEMP,Temperature,36.6,C,36.6,C,2026-05-22,End of study,5
SYN-2026-01,VS,SYN-2026-01-SITE-104-073,25,WEIGHT,Weight,80.8,kg,80.8,kg,2026-05-22,End of study,5
SYN-2026-01,VS,SYN-2026-01-SITE-104-074,1,SYSBP,Systolic Blood Pressure,146,mmHg,146,mmHg,2025-09-15,Screening,1
SYN-2026-01,VS,SYN-2026-01-SITE-104-074,2,DIABP,Diastolic Blood Pressure,85,mmHg,85,mmHg,2025-09-15,Screening,1
SYN-2026-01,VS,SYN-2026-01-SITE-104-074,3,PULSE,Pulse Rate,99,beats/min,99,beats/min,2025-09-15,Screening,1
SYN-2026-01,VS,SYN-2026-01-SITE-104-074,4,TEMP,Temperature,36.5,C,36.5,C,2025-09-15,Screening,1
SYN-2026-01,VS,SYN-2026-01-SITE-104-074,5,WEIGHT,Weight,98.2,kg,98.2,kg,2025-09-15,Screening,1
SYN-2026-01,VS,SYN-2026-01-SITE-104-074,6,SYSBP,Systolic Blood Pressure,123,mmHg,123,mmHg,2025-10-01,Baseline / Day 1,2
SYN-2026-01,VS,SYN-2026-01-SITE-104-074,7,DIABP,Diastolic Blood Pressure,95,mmHg,95,mmHg,2025-10-01,Baseline / Day 1,2
SYN-2026-01,VS,SYN-2026-01-SITE-104-074,8,PULSE,Pulse Rate,59,beats/min,59,beats/min,2025-10-01,Baseline / Day 1,2
SYN-2026-01,VS,SYN-2026-01-SITE-104-074,9,TEMP,Temperature,37.0,C,37.0,C,2025-10-01,Baseline / Day 1,2
SYN-2026-01,VS,SYN-2026-01-SITE-104-074,10,WEIGHT,Weight,72.6,kg,72.6,kg,2025-10-01,Baseline / Day 1,2
SYN-2026-01,VS,SYN-2026-01-SITE-104-074,11,SYSBP,Systolic Blood Pressure,115,mmHg,115,mmHg,2025-10-30,Week 4,3
SYN-2026-01,VS,SYN-2026-01-SITE-104-074,12,DIABP,Diastolic Blood Pressure,92,mmHg,92,mmHg,2025-10-30,Week 4,3
SYN-2026-01,VS,SYN-2026-01-SITE-104-074,13,PULSE,Pulse Rate,86,beats/min,86,beats/min,2025-10-30,Week 4,3
SYN-2026-01,VS,SYN-2026-01-SITE-104-074,14,TEMP,Temperature,36.4,C,36.4,C,2025-10-30,Week 4,3
SYN-2026-01,VS,SYN-2026-01-SITE-104-074,15,WEIGHT,Weight,100.3,kg,100.3,kg,2025-10-30,Week 4,3
SYN-2026-01,VS,SYN-2026-01-SITE-104-074,16,SYSBP,Systolic Blood Pressure,142,mmHg,142,mmHg,2025-12-23,Week 12,4
SYN-2026-01,VS,SYN-2026-01-SITE-104-074,17,DIABP,Diastolic Blood Pressure,79,mmHg,79,mmHg,2025-12-23,Week 12,4
SYN-2026-01,VS,SYN-2026-01-SITE-104-074,18,PULSE,Pulse Rate,76,beats/min,76,beats/min,2025-12-23,Week 12,4
SYN-2026-01,VS,SYN-2026-01-SITE-104-074,19,TEMP,Temperature,37.2,C,37.2,C,2025-12-23,Week 12,4
SYN-2026-01,VS,SYN-2026-01-SITE-104-074,20,WEIGHT,Weight,45.0,kg,45.0,kg,2025-12-23,Week 12,4
SYN-2026-01,VS,SYN-2026-01-SITE-104-074,21,SYSBP,Systolic Blood Pressure,144,mmHg,144,mmHg,2026-03-10,End of study,5
SYN-2026-01,VS,SYN-2026-01-SITE-104-074,22,DIABP,Diastolic Blood Pressure,71,mmHg,71,mmHg,2026-03-10,End of study,5
SYN-2026-01,VS,SYN-2026-01-SITE-104-074,23,PULSE,Pulse Rate,79,beats/min,79,beats/min,2026-03-10,End of study,5
SYN-2026-01,VS,SYN-2026-01-SITE-104-074,24,TEMP,Temperature,37.1,C,37.1,C,2026-03-10,End of study,5
SYN-2026-01,VS,SYN-2026-01-SITE-104-074,25,WEIGHT,Weight,63.7,kg,63.7,kg,2026-03-10,End of study,5
SYN-2026-01,VS,SYN-2026-01-SITE-104-076,1,SYSBP,Systolic Blood Pressure,140,mmHg,140,mmHg,2026-03-27,Screening,1
SYN-2026-01,VS,SYN-2026-01-SITE-104-076,2,DIABP,Diastolic Blood Pressure,80,mmHg,80,mmHg,2026-03-27,Screening,1
SYN-2026-01,VS,SYN-2026-01-SITE-104-076,3,PULSE,Pulse Rate,48,beats/min,48,beats/min,2026-03-27,Screening,1
SYN-2026-01,VS,SYN-2026-01-SITE-104-076,4,WEIGHT,Weight,81.8,kg,81.8,kg,2026-03-27,Screening,1
SYN-2026-01,VS,SYN-2026-01-SITE-104-076,5,SYSBP,Systolic Blood Pressure,121,mmHg,121,mmHg,2026-04-04,Baseline / Day 1,2
SYN-2026-01,VS,SYN-2026-01-SITE-104-076,6,DIABP,Diastolic Blood Pressure,79,mmHg,79,mmHg,2026-04-04,Baseline / Day 1,2
SYN-2026-01,VS,SYN-2026-01-SITE-104-076,7,PULSE,Pulse Rate,70,beats/min,70,beats/min,2026-04-04,Baseline / Day 1,2
SYN-2026-01,VS,SYN-2026-01-SITE-104-076,8,TEMP,Temperature,37.6,C,37.6,C,2026-04-04,Baseline / Day 1,2
SYN-2026-01,VS,SYN-2026-01-SITE-104-076,9,WEIGHT,Weight,85.8,kg,85.8,kg,2026-04-04,Baseline / Day 1,2
SYN-2026-01,VS,SYN-2026-01-SITE-104-079,1,SYSBP,Systolic Blood Pressure,145,mmHg,145,mmHg,2025-09-11,Screening,1
SYN-2026-01,VS,SYN-2026-01-SITE-104-079,2,DIABP,Diastolic Blood Pressure,75,mmHg,75,mmHg,2025-09-11,Screening,1
SYN-2026-01,VS,SYN-2026-01-SITE-104-079,3,PULSE,Pulse Rate,52,beats/min,52,beats/min,2025-09-11,Screening,1
SYN-2026-01,VS,SYN-2026-01-SITE-104-079,4,TEMP,Temperature,36.7,C,36.7,C,2025-09-11,Screening,1
SYN-2026-01,VS,SYN-2026-01-SITE-104-079,5,WEIGHT,Weight,88.3,kg,88.3,kg,2025-09-11,Screening,1
SYN-2026-01,VS,SYN-2026-01-SITE-104-079,6,SYSBP,Systolic Blood Pressure,129,mmHg,129,mmHg,2025-09-19,Baseline / Day 1,2
SYN-2026-01,VS,SYN-2026-01-SITE-104-079,7,DIABP,Diastolic Blood Pressure,91,mmHg,91,mmHg,2025-09-19,Baseline / Day 1,2
SYN-2026-01,VS,SYN-2026-01-SITE-104-079,8,PULSE,Pulse Rate,64,beats/min,64,beats/min,2025-09-19,Baseline / Day 1,2
SYN-2026-01,VS,SYN-2026-01-SITE-104-079,9,TEMP,Temperature,36.7,C,36.7,C,2025-09-19,Baseline / Day 1,2
SYN-2026-01,VS,SYN-2026-01-SITE-104-079,10,WEIGHT,Weight,50.8,kg,50.8,kg,2025-09-19,Baseline / Day 1,2
SYN-2026-01,VS,SYN-2026-01-SITE-104-079,11,SYSBP,Systolic Blood Pressure,155,mmHg,155,mmHg,2025-10-14,Week 4,3
SYN-2026-01,VS,SYN-2026-01-SITE-104-079,12,DIABP,Diastolic Blood Pressure,84,mmHg,84,mmHg,2025-10-14,Week 4,3
SYN-2026-01,VS,SYN-2026-01-SITE-104-079,13,PULSE,Pulse Rate,76,beats/min,76,beats/min,2025-10-14,Week 4,3
SYN-2026-01,VS,SYN-2026-01-SITE-104-079,14,TEMP,Temperature,36.6,C,36.6,C,2025-10-14,Week 4,3
SYN-2026-01,VS,SYN-2026-01-SITE-104-079,15,WEIGHT,Weight,82.8,kg,82.8,kg,2025-10-14,Week 4,3
SYN-2026-01,VS,SYN-2026-01-SITE-104-079,16,SYSBP,Systolic Blood Pressure,128,mmHg,128,mmHg,2025-12-12,Week 12,4
SYN-2026-01,VS,SYN-2026-01-SITE-104-079,17,DIABP,Diastolic Blood Pressure,88,mmHg,88,mmHg,2025-12-12,Week 12,4
SYN-2026-01,VS,SYN-2026-01-SITE-104-079,18,PULSE,Pulse Rate,54,beats/min,54,beats/min,2025-12-12,Week 12,4
SYN-2026-01,VS,SYN-2026-01-SITE-104-079,19,WEIGHT,Weight,62.5,kg,62.5,kg,2025-12-12,Week 12,4
SYN-2026-01,VS,SYN-2026-01-SITE-104-079,20,SYSBP,Systolic Blood Pressure,126,mmHg,126,mmHg,2026-03-10,End of study,5
SYN-2026-01,VS,SYN-2026-01-SITE-104-079,21,DIABP,Diastolic Blood Pressure,86,mmHg,86,mmHg,2026-03-10,End of study,5
SYN-2026-01,VS,SYN-2026-01-SITE-104-079,22,PULSE,Pulse Rate,72,beats/min,72,beats/min,2026-03-10,End of study,5
SYN-2026-01,VS,SYN-2026-01-SITE-104-079,23,TEMP,Temperature,37.2,C,37.2,C,2026-03-10,End of study,5
SYN-2026-01,VS,SYN-2026-01-SITE-104-079,24,WEIGHT,Weight,85.6,kg,85.6,kg,2026-03-10,End of study,5
SYN-2026-01,VS,SYN-2026-01-SITE-104-090,1,SYSBP,Systolic Blood Pressure,141,mmHg,141,mmHg,2026-01-30,Screening,1
SYN-2026-01,VS,SYN-2026-01-SITE-104-090,2,DIABP,Diastolic Blood Pressure,100,mmHg,100,mmHg,2026-01-30,Screening,1
SYN-2026-01,VS,SYN-2026-01-SITE-104-090,3,PULSE,Pulse Rate,67,beats/min,67,beats/min,2026-01-30,Screening,1
SYN-2026-01,VS,SYN-2026-01-SITE-104-090,4,TEMP,Temperature,36.5,C,36.5,C,2026-01-30,Screening,1
SYN-2026-01,VS,SYN-2026-01-SITE-104-090,5,WEIGHT,Weight,44.5,kg,44.5,kg,2026-01-30,Screening,1
SYN-2026-01,VS,SYN-2026-01-SITE-104-090,6,SYSBP,Systolic Blood Pressure,127,mmHg,127,mmHg,2026-02-14,Baseline / Day 1,2
SYN-2026-01,VS,SYN-2026-01-SITE-104-090,7,DIABP,Diastolic Blood Pressure,93,mmHg,93,mmHg,2026-02-14,Baseline / Day 1,2
SYN-2026-01,VS,SYN-2026-01-SITE-104-090,8,PULSE,Pulse Rate,77,beats/min,77,beats/min,2026-02-14,Baseline / Day 1,2
SYN-2026-01,VS,SYN-2026-01-SITE-104-090,9,TEMP,Temperature,36.6,C,36.6,C,2026-02-14,Baseline / Day 1,2
SYN-2026-01,VS,SYN-2026-01-SITE-104-090,10,WEIGHT,Weight,79.1,kg,79.1,kg,2026-02-14,Baseline / Day 1,2
SYN-2026-01,VS,SYN-2026-01-SITE-104-090,11,SYSBP,Systolic Blood Pressure,130,mmHg,130,mmHg,2026-03-11,Week 4,3
SYN-2026-01,VS,SYN-2026-01-SITE-104-090,12,DIABP,Diastolic Blood Pressure,94,mmHg,94,mmHg,2026-03-11,Week 4,3
SYN-2026-01,VS,SYN-2026-01-SITE-104-090,13,PULSE,Pulse Rate,61,beats/min,61,beats/min,2026-03-11,Week 4,3
SYN-2026-01,VS,SYN-2026-01-SITE-104-090,14,TEMP,Temperature,36.3,C,36.3,C,2026-03-11,Week 4,3
SYN-2026-01,VS,SYN-2026-01-SITE-104-090,15,WEIGHT,Weight,96.4,kg,96.4,kg,2026-03-11,Week 4,3
SYN-2026-01,VS,SYN-2026-01-SITE-104-090,16,SYSBP,Systolic Blood Pressure,124,mmHg,124,mmHg,2026-05-10,Week 12,4
SYN-2026-01,VS,SYN-2026-01-SITE-104-090,17,DIABP,Diastolic Blood Pressure,91,mmHg,91,mmHg,2026-05-10,Week 12,4
SYN-2026-01,VS,SYN-2026-01-SITE-104-090,18,PULSE,Pulse Rate,93,beats/min,93,beats/min,2026-05-10,Week 12,4
SYN-2026-01,VS,SYN-2026-01-SITE-104-090,19,TEMP,Temperature,36.6,C,36.6,C,2026-05-10,Week 12,4
SYN-2026-01,VS,SYN-2026-01-SITE-104-090,20,WEIGHT,Weight,79.1,kg,79.1,kg,2026-05-10,Week 12,4
SYN-2026-01,VS,SYN-2026-01-SITE-104-090,21,SYSBP,Systolic Blood Pressure,134,mmHg,134,mmHg,2026-07-31,End of study,5
SYN-2026-01,VS,SYN-2026-01-SITE-104-090,22,DIABP,Diastolic Blood Pressure,76,mmHg,76,mmHg,2026-07-31,End of study,5
SYN-2026-01,VS,SYN-2026-01-SITE-104-090,23,PULSE,Pulse Rate,79,beats/min,79,beats/min,2026-07-31,End of study,5
SYN-2026-01,VS,SYN-2026-01-SITE-104-090,24,TEMP,Temperature,36.7,C,36.7,C,2026-07-31,End of study,5
SYN-2026-01,VS,SYN-2026-01-SITE-104-090,25,WEIGHT,Weight,48.9,kg,48.9,kg,2026-07-31,End of study,5
SYN-2026-01,VS,SYN-2026-01-SITE-104-091,1,SYSBP,Systolic Blood Pressure,108,mmHg,108,mmHg,2025-11-17,Screening,1
SYN-2026-01,VS,SYN-2026-01-SITE-104-091,2,DIABP,Diastolic Blood Pressure,86,mmHg,86,mmHg,2025-11-17,Screening,1
SYN-2026-01,VS,SYN-2026-01-SITE-104-091,3,PULSE,Pulse Rate,78,beats/min,78,beats/min,2025-11-17,Screening,1
SYN-2026-01,VS,SYN-2026-01-SITE-104-091,4,TEMP,Temperature,36.8,C,36.8,C,2025-11-17,Screening,1
SYN-2026-01,VS,SYN-2026-01-SITE-104-091,5,WEIGHT,Weight,101.1,kg,101.1,kg,2025-11-17,Screening,1
SYN-2026-01,VS,SYN-2026-01-SITE-104-091,6,SYSBP,Systolic Blood Pressure,127,mmHg,127,mmHg,2025-12-02,Baseline / Day 1,2
SYN-2026-01,VS,SYN-2026-01-SITE-104-091,7,DIABP,Diastolic Blood Pressure,73,mmHg,73,mmHg,2025-12-02,Baseline / Day 1,2
SYN-2026-01,VS,SYN-2026-01-SITE-104-091,8,PULSE,Pulse Rate,79,beats/min,79,beats/min,2025-12-02,Baseline / Day 1,2
SYN-2026-01,VS,SYN-2026-01-SITE-104-091,9,TEMP,Temperature,36.4,C,36.4,C,2025-12-02,Baseline / Day 1,2
SYN-2026-01,VS,SYN-2026-01-SITE-104-091,10,WEIGHT,Weight,72.7,kg,72.7,kg,2025-12-02,Baseline / Day 1,2
SYN-2026-01,VS,SYN-2026-01-SITE-104-091,11,SYSBP,Systolic Blood Pressure,130,mmHg,130,mmHg,2025-12-30,Week 4,3
SYN-2026-01,VS,SYN-2026-01-SITE-104-091,12,DIABP,Diastolic Blood Pressure,69,mmHg,69,mmHg,2025-12-30,Week 4,3
SYN-2026-01,VS,SYN-2026-01-SITE-104-091,13,PULSE,Pulse Rate,85,beats/min,85,beats/min,2025-12-30,Week 4,3
SYN-2026-01,VS,SYN-2026-01-SITE-104-091,14,TEMP,Temperature,36.8,C,36.8,C,2025-12-30,Week 4,3
SYN-2026-01,VS,SYN-2026-01-SITE-104-091,15,WEIGHT,Weight,68.3,kg,68.3,kg,2025-12-30,Week 4,3
SYN-2026-01,VS,SYN-2026-01-SITE-104-091,16,SYSBP,Systolic Blood Pressure,109,mmHg,109,mmHg,2026-02-18,Week 12,4
SYN-2026-01,VS,SYN-2026-01-SITE-104-091,17,DIABP,Diastolic Blood Pressure,70,mmHg,70,mmHg,2026-02-18,Week 12,4
SYN-2026-01,VS,SYN-2026-01-SITE-104-091,18,PULSE,Pulse Rate,67,beats/min,67,beats/min,2026-02-18,Week 12,4
SYN-2026-01,VS,SYN-2026-01-SITE-104-091,19,TEMP,Temperature,36.3,C,36.3,C,2026-02-18,Week 12,4
SYN-2026-01,VS,SYN-2026-01-SITE-104-091,20,WEIGHT,Weight,96.1,kg,96.1,kg,2026-02-18,Week 12,4
SYN-2026-01,VS,SYN-2026-01-SITE-104-091,21,SYSBP,Systolic Blood Pressure,111,mmHg,111,mmHg,2026-05-14,End of study,5
SYN-2026-01,VS,SYN-2026-01-SITE-104-091,22,DIABP,Diastolic Blood Pressure,70,mmHg,70,mmHg,2026-05-14,End of study,5
SYN-2026-01,VS,SYN-2026-01-SITE-104-091,23,PULSE,Pulse Rate,71,beats/min,71,beats/min,2026-05-14,End of study,5
SYN-2026-01,VS,SYN-2026-01-SITE-104-091,24,TEMP,Temperature,37.0,C,37.0,C,2026-05-14,End of study,5
SYN-2026-01,VS,SYN-2026-01-SITE-104-091,25,WEIGHT,Weight,95.5,kg,95.5,kg,2026-05-14,End of study,5
SYN-2026-01,VS,SYN-2026-01-SITE-104-092,1,SYSBP,Systolic Blood Pressure,137,mmHg,137,mmHg,2026-01-24,Screening,1
SYN-2026-01,VS,SYN-2026-01-SITE-104-092,2,DIABP,Diastolic Blood Pressure,82,mmHg,82,mmHg,2026-01-24,Screening,1
SYN-2026-01,VS,SYN-2026-01-SITE-104-092,3,PULSE,Pulse Rate,65,beats/min,65,beats/min,2026-01-24,Screening,1
SYN-2026-01,VS,SYN-2026-01-SITE-104-092,4,WEIGHT,Weight,79.6,kg,79.6,kg,2026-01-24,Screening,1
SYN-2026-01,VS,SYN-2026-01-SITE-104-092,5,SYSBP,Systolic Blood Pressure,100,mmHg,100,mmHg,2026-02-06,Baseline / Day 1,2
SYN-2026-01,VS,SYN-2026-01-SITE-104-092,6,DIABP,Diastolic Blood Pressure,84,mmHg,84,mmHg,2026-02-06,Baseline / Day 1,2
SYN-2026-01,VS,SYN-2026-01-SITE-104-092,7,PULSE,Pulse Rate,61,beats/min,61,beats/min,2026-02-06,Baseline / Day 1,2
SYN-2026-01,VS,SYN-2026-01-SITE-104-092,8,TEMP,Temperature,36.9,C,36.9,C,2026-02-06,Baseline / Day 1,2
SYN-2026-01,VS,SYN-2026-01-SITE-104-092,9,WEIGHT,Weight,86.9,kg,86.9,kg,2026-02-06,Baseline / Day 1,2
SYN-2026-01,VS,SYN-2026-01-SITE-104-092,10,SYSBP,Systolic Blood Pressure,106,mmHg,106,mmHg,2026-03-07,Week 4,3
SYN-2026-01,VS,SYN-2026-01-SITE-104-092,11,DIABP,Diastolic Blood Pressure,55,mmHg,55,mmHg,2026-03-07,Week 4,3
SYN-2026-01,VS,SYN-2026-01-SITE-104-092,12,PULSE,Pulse Rate,82,beats/min,82,beats/min,2026-03-07,Week 4,3
SYN-2026-01,VS,SYN-2026-01-SITE-104-092,13,TEMP,Temperature,36.9,C,36.9,C,2026-03-07,Week 4,3
SYN-2026-01,VS,SYN-2026-01-SITE-104-092,14,WEIGHT,Weight,87.8,kg,87.8,kg,2026-03-07,Week 4,3
SYN-2026-01,VS,SYN-2026-01-SITE-104-092,15,SYSBP,Systolic Blood Pressure,107,mmHg,107,mmHg,2026-04-25,Week 12,4
SYN-2026-01,VS,SYN-2026-01-SITE-104-092,16,DIABP,Diastolic Blood Pressure,94,mmHg,94,mmHg,2026-04-25,Week 12,4
SYN-2026-01,VS,SYN-2026-01-SITE-104-092,17,PULSE,Pulse Rate,76,beats/min,76,beats/min,2026-04-25,Week 12,4
SYN-2026-01,VS,SYN-2026-01-SITE-104-092,18,TEMP,Temperature,36.1,C,36.1,C,2026-04-25,Week 12,4
SYN-2026-01,VS,SYN-2026-01-SITE-104-092,19,WEIGHT,Weight,66.3,kg,66.3,kg,2026-04-25,Week 12,4
SYN-2026-01,VS,SYN-2026-01-SITE-104-092,20,SYSBP,Systolic Blood Pressure,113,mmHg,113,mmHg,2026-07-27,End of study,5
SYN-2026-01,VS,SYN-2026-01-SITE-104-092,21,DIABP,Diastolic Blood Pressure,80,mmHg,80,mmHg,2026-07-27,End of study,5
SYN-2026-01,VS,SYN-2026-01-SITE-104-092,22,PULSE,Pulse Rate,78,beats/min,78,beats/min,2026-07-27,End of study,5
SYN-2026-01,VS,SYN-2026-01-SITE-104-092,23,TEMP,Temperature,36.7,C,36.7,C,2026-07-27,End of study,5
SYN-2026-01,VS,SYN-2026-01-SITE-104-092,24,WEIGHT,Weight,92.2,kg,92.2,kg,2026-07-27,End of study,5
SYN-2026-01,VS,SYN-2026-01-SITE-104-101,1,SYSBP,Systolic Blood Pressure,89,mmHg,89,mmHg,2026-01-06,Screening,1
